File: data/FL/FL/2023.4.27/10号b-cds 湖水.txt
Apr. 27, 2023   13:32:53
Cyclic Voltammetry
File: 10Data Source:  Experiment
Instrument Model:  CHI660E
Ref. Electrode: Ag/AgCl
Header:
Note:

Init E (V) = 0
High E (V) = 0
Low E (V) = -2
Init P/N = N
Scan Rate (V/s) = 0.1
Segment = 40
Sample Interval (V) = 0.001
Quiet Time (sec) = 5
Sensitivity (A/V) = 0.001

Segment 1:

Segment 2:

Segment 3:

Segment 4:

Segment 5:

Segment 6:

Segment 7:

Segment 8:

Segment 9:

Segment 10:

Segment 11:

Segment 12:

Segment 13:

Segment 14:

Segment 15:

Segment 16:

Segment 17:

Segment 18:

Segment 19:

Segment 20:

Segment 21:

Segment 22:

Segment 23:

Segment 24:

Segment 25:

Segment 26:

Segment 27:

Segment 28:

Segment 29:

Segment 30:

Segment 31:

Segment 32:

Segment 33:

Segment 34:

Segment 35:

Segment 36:

Segment 37:

Segment 38:

Segment 39:

Segment 40:

Potential/V, Current/A, Voltage/V, Time/s

0.000, 1.185e-5, 1.676e-2, 1.000e-2
-0.061, 7.787e-6, 1.898e-2, 6.200e-1
-0.122, 5.904e-6, 1.571e-2, 1.230e+0
-0.183, 4.685e-6, 1.875e-2, 1.840e+0
-0.244, 3.630e-6, 1.604e-2, 2.450e+0
-0.305, 2.813e-6, 2.022e-2, 3.060e+0
-0.366, 2.074e-6, 1.522e-2, 3.670e+0
-0.427, 1.382e-6, 1.915e-2, 4.280e+0
-0.488, 7.054e-7, 1.690e-2, 4.890e+0
-0.549, 7.351e-8, 1.844e-2, 5.500e+0
-0.610, -6.032e-7, 1.649e-2, 6.110e+0
-0.671, -1.361e-6, 1.793e-2, 6.720e+0
-0.732, -2.099e-6, 1.841e-2, 7.330e+0
-0.793, -3.105e-6, 1.741e-2, 7.940e+0
-0.854, -4.121e-6, 1.673e-2, 8.550e+0
-0.915, -5.349e-6, 1.838e-2, 9.160e+0
-0.976, -6.725e-6, 1.917e-2, 9.770e+0
-1.037, -8.476e-6, 1.802e-2, 1.038e+1
-1.098, -1.035e-5, 1.967e-2, 1.099e+1
-1.159, -1.263e-5, 1.822e-2, 1.160e+1
-1.220, -1.511e-5, 2.112e-2, 1.221e+1
-1.281, -1.806e-5, 1.849e-2, 1.282e+1
-1.342, -2.122e-5, 2.229e-2, 1.343e+1
-1.403, -2.466e-5, 2.071e-2, 1.404e+1
-1.464, -2.824e-5, 2.383e-2, 1.465e+1
-1.525, -3.199e-5, 2.009e-2, 1.526e+1
-1.586, -3.576e-5, 2.429e-2, 1.587e+1
-1.647, -3.945e-5, 2.220e-2, 1.648e+1
-1.708, -4.301e-5, 2.625e-2, 1.709e+1
-1.769, -4.657e-5, 2.426e-2, 1.770e+1
-1.830, -5.029e-5, 3.186e-2, 1.831e+1
-1.891, -5.440e-5, 4.272e-2, 1.892e+1
-1.952, -5.912e-5, 7.540e-2, 1.953e+1
-1.987, -5.763e-5, 7.534e-2, 2.014e+1
-1.926, -4.196e-5, 3.634e-2, 2.075e+1
-1.865, -3.241e-5, 2.485e-2, 2.136e+1
-1.804, -2.579e-5, 2.244e-2, 2.197e+1
-1.743, -2.098e-5, 1.866e-2, 2.258e+1
-1.682, -1.736e-5, 1.958e-2, 2.319e+1
-1.621, -1.438e-5, 1.785e-2, 2.380e+1
-1.560, -1.196e-5, 1.930e-2, 2.441e+1
-1.499, -9.965e-6, 1.653e-2, 2.502e+1
-1.438, -8.328e-6, 1.728e-2, 2.563e+1
-1.377, -6.785e-6, 1.879e-2, 2.624e+1
-1.316, -5.529e-6, 1.877e-2, 2.685e+1
-1.255, -4.315e-6, 1.785e-2, 2.746e+1
-1.194, -3.315e-6, 1.647e-2, 2.807e+1
-1.133, -2.266e-6, 1.829e-2, 2.868e+1
-1.072, -1.442e-6, 1.692e-2, 2.929e+1
-1.011, -4.900e-7, 1.721e-2, 2.990e+1
-0.950, 3.313e-7, 1.574e-2, 3.051e+1
-0.889, 1.152e-6, 1.895e-2, 3.112e+1
-0.828, 1.963e-6, 1.801e-2, 3.173e+1
-0.767, 2.803e-6, 1.809e-2, 3.234e+1
-0.706, 3.594e-6, 1.499e-2, 3.295e+1
-0.645, 4.486e-6, 2.002e-2, 3.356e+1
-0.584, 5.255e-6, 1.597e-2, 3.417e+1
-0.523, 6.082e-6, 1.853e-2, 3.478e+1
-0.462, 6.811e-6, 1.508e-2, 3.539e+1
-0.401, 7.530e-6, 1.968e-2, 3.600e+1
-0.340, 8.165e-6, 1.668e-2, 3.661e+1
-0.279, 8.775e-6, 1.835e-2, 3.722e+1
-0.218, 9.282e-6, 1.568e-2, 3.783e+1
-0.157, 9.750e-6, 1.958e-2, 3.844e+1
-0.096, 1.016e-5, 1.647e-2, 3.905e+1
-0.035, 1.058e-5, 1.808e-2, 3.966e+1
-0.026, 9.269e-6, 1.505e-2, 4.027e+1
-0.087, 7.315e-6, 2.015e-2, 4.088e+1
-0.148, 5.980e-6, 1.594e-2, 4.149e+1
-0.209, 4.847e-6, 1.782e-2, 4.210e+1
-0.270, 3.947e-6, 1.586e-2, 4.271e+1
-0.331, 3.032e-6, 1.880e-2, 4.332e+1
-0.392, 2.305e-6, 1.656e-2, 4.393e+1
-0.453, 1.570e-6, 1.781e-2, 4.454e+1
-0.514, 8.862e-7, 1.684e-2, 4.515e+1
-0.575, 2.218e-7, 1.925e-2, 4.576e+1
-0.636, -3.928e-7, 1.664e-2, 4.637e+1
-0.697, -1.144e-6, 1.720e-2, 4.698e+1
-0.758, -1.861e-6, 1.675e-2, 4.759e+1
-0.819, -2.690e-6, 1.854e-2, 4.820e+1
-0.880, -3.628e-6, 1.714e-2, 4.881e+1
-0.941, -4.721e-6, 1.664e-2, 4.942e+1
-1.002, -5.885e-6, 1.795e-2, 5.003e+1
-1.063, -7.487e-6, 1.830e-2, 5.064e+1
-1.124, -9.160e-6, 1.806e-2, 5.125e+1
-1.185, -1.123e-5, 1.735e-2, 5.186e+1
-1.246, -1.351e-5, 1.921e-2, 5.247e+1
-1.307, -1.624e-5, 2.093e-2, 5.308e+1
-1.368, -1.914e-5, 2.028e-2, 5.369e+1
-1.429, -2.252e-5, 1.895e-2, 5.430e+1
-1.490, -2.587e-5, 2.507e-2, 5.491e+1
-1.551, -2.955e-5, 2.065e-2, 5.552e+1
-1.612, -3.318e-5, 2.474e-2, 5.613e+1
-1.673, -3.681e-5, 2.135e-2, 5.674e+1
-1.734, -4.036e-5, 2.641e-2, 5.735e+1
-1.795, -4.408e-5, 2.621e-2, 5.796e+1
-1.856, -4.807e-5, 3.515e-2, 5.857e+1
-1.917, -5.251e-5, 4.715e-2, 5.918e+1
-1.978, -5.759e-5, 8.399e-2, 5.979e+1
-1.961, -4.680e-5, 5.287e-2, 6.040e+1
-1.900, -3.515e-5, 2.737e-2, 6.101e+1
-1.839, -2.754e-5, 2.102e-2, 6.162e+1
-1.778, -2.221e-5, 2.884e-2, 6.223e+1
-1.717, -1.815e-5, 1.697e-2, 6.284e+1
-1.656, -1.502e-5, 1.892e-2, 6.345e+1
-1.595, -1.247e-5, 1.808e-2, 6.406e+1
-1.534, -1.042e-5, 2.012e-2, 6.467e+1
-1.473, -8.630e-6, 1.777e-2, 6.528e+1
-1.412, -7.091e-6, 1.829e-2, 6.589e+1
-1.351, -5.777e-6, 1.867e-2, 6.650e+1
-1.290, -4.679e-6, 1.836e-2, 6.711e+1
-1.229, -3.543e-6, 1.686e-2, 6.772e+1
-1.168, -2.648e-6, 1.806e-2, 6.833e+1
-1.107, -1.675e-6, 1.828e-2, 6.894e+1
-1.046, -8.198e-7, 1.643e-2, 6.955e+1
-0.985, 7.597e-8, 1.787e-2, 7.016e+1
-0.924, 8.604e-7, 1.627e-2, 7.077e+1
-0.863, 1.709e-6, 1.934e-2, 7.138e+1
-0.802, 2.491e-6, 1.553e-2, 7.199e+1
-0.741, 3.293e-6, 1.921e-2, 7.260e+1
-0.680, 4.092e-6, 1.684e-2, 7.321e+1
-0.619, 4.970e-6, 1.888e-2, 7.382e+1
-0.558, 5.769e-6, 1.517e-2, 7.443e+1
-0.497, 6.572e-6, 1.892e-2, 7.504e+1
-0.436, 7.310e-6, 1.626e-2, 7.565e+1
-0.375, 7.940e-6, 1.882e-2, 7.626e+1
-0.314, 8.575e-6, 1.493e-2, 7.687e+1
-0.253, 9.172e-6, 1.859e-2, 7.748e+1
-0.192, 9.615e-6, 1.674e-2, 7.809e+1
-0.131, 1.008e-5, 1.791e-2, 7.870e+1
-0.070, 1.047e-5, 1.621e-2, 7.931e+1
-0.009, 1.081e-5, 1.785e-2, 7.992e+1
-0.052, 8.467e-6, 1.789e-2, 8.053e+1
-0.113, 6.797e-6, 1.726e-2, 8.114e+1
-0.174, 5.644e-6, 2.419e-2, 8.175e+1
-0.235, 4.519e-6, 1.786e-2, 8.236e+1
-0.296, 3.668e-6, 1.776e-2, 8.297e+1
-0.357, 2.775e-6, 1.687e-2, 8.358e+1
-0.418, 2.119e-6, 1.803e-2, 8.419e+1
-0.479, 1.351e-6, 1.702e-2, 8.480e+1
-0.540, 7.300e-7, 1.822e-2, 8.541e+1
-0.601, 4.213e-8, 1.446e-2, 8.602e+1
-0.662, -5.829e-7, 1.887e-2, 8.663e+1
-0.723, -1.327e-6, 1.667e-2, 8.724e+1
-0.784, -2.009e-6, 1.869e-2, 8.785e+1
-0.845, -2.922e-6, 1.513e-2, 8.846e+1
-0.906, -3.801e-6, 1.916e-2, 8.907e+1
-0.967, -4.851e-6, 1.672e-2, 8.968e+1
-1.028, -6.135e-6, 1.918e-2, 9.029e+1
-1.089, -7.653e-6, 1.598e-2, 9.090e+1
-1.150, -9.446e-6, 2.116e-2, 9.151e+1
-1.211, -1.147e-5, 1.756e-2, 9.212e+1
-1.272, -1.386e-5, 2.057e-2, 9.273e+1
-1.333, -1.655e-5, 1.850e-2, 9.334e+1
-1.394, -1.956e-5, 2.390e-2, 9.395e+1
-1.455, -2.282e-5, 2.074e-2, 9.456e+1
-1.516, -2.628e-5, 2.139e-2, 9.517e+1
-1.577, -2.982e-5, 2.245e-2, 9.578e+1
-1.638, -3.348e-5, 2.517e-2, 9.639e+1
-1.699, -3.699e-5, 2.412e-2, 9.700e+1
-1.760, -4.061e-5, 2.503e-2, 9.761e+1
-1.821, -4.430e-5, 2.878e-2, 9.822e+1
-1.882, -4.840e-5, 3.968e-2, 9.883e+1
-1.943, -5.292e-5, 5.908e-2, 9.944e+1
-1.996, -5.591e-5, 8.536e-2, 1.001e+2
-1.935, -3.988e-5, 3.372e-2, 1.007e+2
-1.874, -3.069e-5, 2.462e-2, 1.013e+2
-1.813, -2.435e-5, 2.030e-2, 1.019e+2
-1.752, -1.976e-5, 1.890e-2, 1.025e+2
-1.691, -1.621e-5, 2.068e-2, 1.031e+2
-1.630, -1.348e-5, 1.838e-2, 1.037e+2
-1.569, -1.114e-5, 1.779e-2, 1.043e+2
-1.508, -9.397e-6, 1.877e-2, 1.049e+2
-1.447, -7.637e-6, 1.954e-2, 1.055e+2
-1.386, -6.340e-6, 1.759e-2, 1.062e+2
-1.325, -5.074e-6, 1.786e-2, 1.068e+2
-1.264, -4.039e-6, 1.804e-2, 1.074e+2
-1.203, -2.970e-6, 1.942e-2, 1.080e+2
-1.142, -2.096e-6, 1.669e-2, 1.086e+2
-1.081, -1.143e-6, 1.716e-2, 1.092e+2
-1.020, -3.559e-7, 1.774e-2, 1.098e+2
-0.959, 5.331e-7, 1.792e-2, 1.104e+2
-0.898, 1.265e-6, 1.600e-2, 1.110e+2
-0.837, 2.123e-6, 1.819e-2, 1.116e+2
-0.776, 2.850e-6, 1.776e-2, 1.123e+2
-0.715, 3.735e-6, 1.714e-2, 1.129e+2
-0.654, 4.574e-6, 1.610e-2, 1.135e+2
-0.593, 5.405e-6, 1.790e-2, 1.141e+2
-0.532, 6.169e-6, 1.787e-2, 1.147e+2
-0.471, 6.950e-6, 1.640e-2, 1.153e+2
-0.410, 7.564e-6, 1.768e-2, 1.159e+2
-0.349, 8.278e-6, 1.755e-2, 1.165e+2
-0.288, 8.860e-6, 1.790e-2, 1.171e+2
-0.227, 9.391e-6, 1.639e-2, 1.177e+2
-0.166, 9.832e-6, 1.840e-2, 1.184e+2
-0.105, 1.027e-5, 1.741e-2, 1.190e+2
-0.044, 1.062e-5, 1.706e-2, 1.196e+2
-0.017, 9.835e-6, 1.569e-2, 1.202e+2
-0.078, 7.734e-6, 1.979e-2, 1.208e+2
-0.139, 6.330e-6, 1.671e-2, 1.214e+2
-0.200, 5.152e-6, 1.777e-2, 1.220e+2
-0.261, 4.213e-6, 1.627e-2, 1.226e+2
-0.322, 3.289e-6, 1.975e-2, 1.232e+2
-0.383, 2.538e-6, 1.633e-2, 1.238e+2
-0.444, 1.794e-6, 1.805e-2, 1.245e+2
-0.505, 1.132e-6, 1.689e-2, 1.251e+2
-0.566, 4.679e-7, 1.878e-2, 1.257e+2
-0.627, -1.640e-7, 1.530e-2, 1.263e+2
-0.688, -8.586e-7, 1.903e-2, 1.269e+2
-0.749, -1.565e-6, 1.650e-2, 1.275e+2
-0.810, -2.305e-6, 1.940e-2, 1.281e+2
-0.871, -3.145e-6, 1.411e-2, 1.287e+2
-0.932, -4.113e-6, 2.021e-2, 1.293e+2
-0.993, -5.214e-6, 1.700e-2, 1.299e+2
-1.054, -6.540e-6, 1.828e-2, 1.306e+2
-1.115, -8.092e-6, 1.560e-2, 1.312e+2
-1.176, -9.912e-6, 2.103e-2, 1.318e+2
-1.237, -1.196e-5, 1.816e-2, 1.324e+2
-1.298, -1.442e-5, 2.040e-2, 1.330e+2
-1.359, -1.719e-5, 1.769e-2, 1.336e+2
-1.420, -2.020e-5, 2.219e-2, 1.342e+2
-1.481, -2.354e-5, 1.873e-2, 1.348e+2
-1.542, -2.699e-5, 2.301e-2, 1.354e+2
-1.603, -3.055e-5, 2.144e-2, 1.360e+2
-1.664, -3.414e-5, 2.398e-2, 1.367e+2
-1.725, -3.775e-5, 2.185e-2, 1.373e+2
-1.786, -4.129e-5, 2.809e-2, 1.379e+2
-1.847, -4.510e-5, 3.358e-2, 1.385e+2
-1.908, -4.923e-5, 4.340e-2, 1.391e+2
-1.969, -5.397e-5, 6.899e-2, 1.397e+2
-1.970, -4.666e-5, 5.747e-2, 1.403e+2
-1.909, -3.469e-5, 2.933e-2, 1.409e+2
-1.848, -2.707e-5, 2.225e-2, 1.415e+2
-1.787, -2.174e-5, 1.761e-2, 1.421e+2
-1.726, -1.771e-5, 2.179e-2, 1.428e+2
-1.665, -1.463e-5, 1.774e-2, 1.434e+2
-1.604, -1.215e-5, 1.990e-2, 1.440e+2
-1.543, -1.012e-5, 1.757e-2, 1.446e+2
-1.482, -8.360e-6, 2.111e-2, 1.452e+2
-1.421, -6.884e-6, 1.563e-2, 1.458e+2
-1.360, -5.622e-6, 1.898e-2, 1.464e+2
-1.299, -4.514e-6, 1.687e-2, 1.470e+2
-1.238, -3.495e-6, 1.937e-2, 1.476e+2
-1.177, -2.482e-6, 1.522e-2, 1.482e+2
-1.116, -1.603e-6, 1.892e-2, 1.488e+2
-1.055, -7.337e-7, 1.672e-2, 1.495e+2
-0.994, 1.252e-7, 1.829e-2, 1.501e+2
-0.933, 9.121e-7, 1.568e-2, 1.507e+2
-0.872, 1.682e-6, 2.022e-2, 1.513e+2
-0.811, 2.471e-6, 1.592e-2, 1.519e+2
-0.750, 3.251e-6, 1.737e-2, 1.525e+2
-0.689, 4.108e-6, 1.599e-2, 1.531e+2
-0.628, 4.906e-6, 1.961e-2, 1.537e+2
-0.567, 5.771e-6, 1.504e-2, 1.543e+2
-0.506, 6.535e-6, 1.751e-2, 1.549e+2
-0.445, 7.259e-6, 1.785e-2, 1.556e+2
-0.384, 7.900e-6, 1.742e-2, 1.562e+2
-0.323, 8.520e-6, 1.725e-2, 1.568e+2
-0.262, 9.060e-6, 1.757e-2, 1.574e+2
-0.201, 9.666e-6, 1.826e-2, 1.580e+2
-0.140, 1.001e-5, 1.624e-2, 1.586e+2
-0.079, 1.051e-5, 1.689e-2, 1.592e+2
-0.018, 1.077e-5, 1.685e-2, 1.598e+2
-0.043, 8.879e-6, 1.828e-2, 1.604e+2
-0.104, 7.071e-6, 1.868e-2, 1.610e+2
-0.165, 5.859e-6, 1.847e-2, 1.617e+2
-0.226, 4.730e-6, 1.681e-2, 1.623e+2
-0.287, 3.836e-6, 1.860e-2, 1.629e+2
-0.348, 3.022e-6, 1.551e-2, 1.635e+2
-0.409, 2.239e-6, 1.921e-2, 1.641e+2
-0.470, 1.529e-6, 1.598e-2, 1.647e+2
-0.531, 8.505e-7, 1.763e-2, 1.653e+2
-0.592, 2.230e-7, 1.654e-2, 1.659e+2
-0.653, -3.775e-7, 2.000e-2, 1.665e+2
-0.714, -1.097e-6, 1.558e-2, 1.671e+2
-0.775, -1.797e-6, 1.757e-2, 1.677e+2
-0.836, -2.550e-6, 1.698e-2, 1.684e+2
-0.897, -3.434e-6, 1.951e-2, 1.690e+2
-0.958, -4.416e-6, 1.579e-2, 1.696e+2
-1.019, -5.587e-6, 1.825e-2, 1.702e+2
-1.080, -6.885e-6, 1.824e-2, 1.708e+2
-1.141, -8.518e-6, 1.766e-2, 1.714e+2
-1.202, -1.034e-5, 1.905e-2, 1.720e+2
-1.263, -1.261e-5, 1.922e-2, 1.726e+2
-1.324, -1.504e-5, 2.092e-2, 1.732e+2
-1.385, -1.794e-5, 1.895e-2, 1.738e+2
-1.446, -2.098e-5, 2.206e-2, 1.745e+2
-1.507, -2.438e-5, 2.132e-2, 1.751e+2
-1.568, -2.775e-5, 2.279e-2, 1.757e+2
-1.629, -3.144e-5, 2.078e-2, 1.763e+2
-1.690, -3.496e-5, 2.642e-2, 1.769e+2
-1.751, -3.859e-5, 2.172e-2, 1.775e+2
-1.812, -4.218e-5, 2.846e-2, 1.781e+2
-1.873, -4.613e-5, 3.274e-2, 1.787e+2
-1.934, -5.033e-5, 5.335e-2, 1.793e+2
-1.995, -5.527e-5, 8.737e-2, 1.799e+2
-1.944, -4.018e-5, 3.859e-2, 1.806e+2
-1.883, -3.068e-5, 2.509e-2, 1.812e+2
-1.822, -2.430e-5, 2.244e-2, 1.818e+2
-1.761, -1.962e-5, 1.663e-2, 1.824e+2
-1.700, -1.608e-5, 1.963e-2, 1.830e+2
-1.639, -1.329e-5, 1.889e-2, 1.836e+2
-1.578, -1.099e-5, 1.822e-2, 1.842e+2
-1.517, -9.158e-6, 1.721e-2, 1.848e+2
-1.456, -7.575e-6, 1.806e-2, 1.854e+2
-1.395, -6.137e-6, 1.888e-2, 1.860e+2
-1.334, -5.043e-6, 1.625e-2, 1.866e+2
-1.273, -3.934e-6, 1.828e-2, 1.873e+2
-1.212, -2.984e-6, 1.795e-2, 1.879e+2
-1.151, -1.997e-6, 1.827e-2, 1.885e+2
-1.090, -1.195e-6, 1.565e-2, 1.891e+2
-1.029, -2.747e-7, 1.929e-2, 1.897e+2
-0.968, 5.109e-7, 1.663e-2, 1.903e+2
-0.907, 1.289e-6, 1.844e-2, 1.909e+2
-0.846, 2.032e-6, 1.573e-2, 1.915e+2
-0.785, 2.872e-6, 1.973e-2, 1.921e+2
-0.724, 3.713e-6, 1.521e-2, 1.927e+2
-0.663, 4.534e-6, 1.879e-2, 1.934e+2
-0.602, 5.293e-6, 1.679e-2, 1.940e+2
-0.541, 6.122e-6, 1.867e-2, 1.946e+2
-0.480, 6.908e-6, 1.544e-2, 1.952e+2
-0.419, 7.571e-6, 1.815e-2, 1.958e+2
-0.358, 8.203e-6, 1.664e-2, 1.964e+2
-0.297, 8.798e-6, 1.822e-2, 1.970e+2
-0.236, 9.333e-6, 1.587e-2, 1.976e+2
-0.175, 9.804e-6, 1.928e-2, 1.982e+2
-0.114, 1.023e-5, 1.669e-2, 1.988e+2
-0.053, 1.058e-5, 1.767e-2, 1.994e+2
-0.008, 1.031e-5, 1.784e-2, 2.001e+2
-0.069, 7.997e-6, 1.831e-2, 2.007e+2
-0.130, 6.640e-6, 1.745e-2, 2.013e+2
-0.191, 5.325e-6, 1.609e-2, 2.019e+2
-0.252, 4.394e-6, 1.933e-2, 2.025e+2
-0.313, 3.457e-6, 1.724e-2, 2.031e+2
-0.374, 2.760e-6, 1.675e-2, 2.037e+2
-0.435, 1.924e-6, 1.656e-2, 2.043e+2
-0.496, 1.286e-6, 1.925e-2, 2.049e+2
-0.557, 6.149e-7, 1.567e-2, 2.055e+2
-0.618, -2.166e-9, 1.942e-2, 2.062e+2
-0.679, -6.703e-7, 1.666e-2, 2.068e+2
-0.740, -1.303e-6, 1.881e-2, 2.074e+2
-0.801, -2.040e-6, 1.441e-2, 2.080e+2
-0.862, -2.806e-6, 1.968e-2, 2.086e+2
-0.923, -3.685e-6, 1.730e-2, 2.092e+2
-0.984, -4.738e-6, 1.848e-2, 2.098e+2
-1.045, -5.860e-6, 1.673e-2, 2.104e+2
-1.106, -7.303e-6, 2.000e-2, 2.110e+2
-1.167, -9.002e-6, 1.672e-2, 2.116e+2
-1.228, -1.093e-5, 1.882e-2, 2.123e+2
-1.289, -1.320e-5, 1.865e-2, 2.129e+2
-1.350, -1.578e-5, 2.094e-2, 2.135e+2
-1.411, -1.871e-5, 1.805e-2, 2.141e+2
-1.472, -2.194e-5, 2.091e-2, 2.147e+2
-1.533, -2.525e-5, 2.118e-2, 2.153e+2
-1.594, -2.882e-5, 2.276e-2, 2.159e+2
-1.655, -3.235e-5, 2.357e-2, 2.165e+2
-1.716, -3.597e-5, 2.469e-2, 2.171e+2
-1.777, -3.950e-5, 2.697e-2, 2.177e+2
-1.838, -4.326e-5, 2.899e-2, 2.183e+2
-1.899, -4.722e-5, 4.431e-2, 2.190e+2
-1.960, -5.176e-5, 6.283e-2, 2.196e+2
-1.979, -4.771e-5, 6.263e-2, 2.202e+2
-1.918, -3.517e-5, 2.951e-2, 2.208e+2
-1.857, -2.730e-5, 2.400e-2, 2.214e+2
-1.796, -2.188e-5, 1.945e-2, 2.220e+2
-1.735, -1.778e-5, 2.031e-2, 2.226e+2
-1.674, -1.466e-5, 1.816e-2, 2.232e+2
-1.613, -1.207e-5, 2.166e-2, 2.238e+2
-1.552, -1.005e-5, 1.650e-2, 2.244e+2
-1.491, -8.335e-6, 1.886e-2, 2.251e+2
-1.430, -6.834e-6, 1.636e-2, 2.257e+2
-1.369, -5.537e-6, 1.875e-2, 2.263e+2
-1.308, -4.434e-6, 1.596e-2, 2.269e+2
-1.247, -3.385e-6, 2.027e-2, 2.275e+2
-1.186, -2.463e-6, 1.609e-2, 2.281e+2
-1.125, -1.596e-6, 1.875e-2, 2.287e+2
-1.064, -7.312e-7, 1.567e-2, 2.293e+2
-1.003, 7.905e-8, 2.003e-2, 2.299e+2
-0.942, 8.727e-7, 1.550e-2, 2.305e+2
-0.881, 1.679e-6, 1.814e-2, 2.312e+2
-0.820, 2.416e-6, 1.691e-2, 2.318e+2
-0.759, 3.213e-6, 1.828e-2, 2.324e+2
-0.698, 4.081e-6, 1.552e-2, 2.330e+2
-0.637, 4.861e-6, 1.939e-2, 2.336e+2
-0.576, 5.691e-6, 1.642e-2, 2.342e+2
-0.515, 6.474e-6, 1.724e-2, 2.348e+2
-0.454, 7.205e-6, 1.595e-2, 2.354e+2
-0.393, 7.850e-6, 1.989e-2, 2.360e+2
-0.332, 8.492e-6, 1.677e-2, 2.366e+2
-0.271, 9.004e-6, 1.607e-2, 2.372e+2
-0.210, 9.546e-6, 1.732e-2, 2.379e+2
-0.149, 9.990e-6, 1.797e-2, 2.385e+2
-0.088, 1.042e-5, 1.737e-2, 2.391e+2
-0.027, 1.075e-5, 1.733e-2, 2.397e+2
-0.034, 9.223e-6, 1.790e-2, 2.403e+2
-0.095, 7.331e-6, 1.718e-2, 2.409e+2
-0.156, 6.111e-6, 1.665e-2, 2.415e+2
-0.217, 4.906e-6, 1.838e-2, 2.421e+2
-0.278, 4.050e-6, 1.791e-2, 2.427e+2
-0.339, 3.125e-6, 1.577e-2, 2.433e+2
-0.400, 2.412e-6, 1.763e-2, 2.440e+2
-0.461, 1.642e-6, 1.753e-2, 2.446e+2
-0.522, 1.052e-6, 1.721e-2, 2.452e+2
-0.583, 3.571e-7, 1.588e-2, 2.458e+2
-0.644, -2.126e-7, 1.871e-2, 2.464e+2
-0.705, -9.139e-7, 1.664e-2, 2.470e+2
-0.766, -1.538e-6, 1.710e-2, 2.476e+2
-0.827, -2.325e-6, 1.704e-2, 2.482e+2
-0.888, -3.049e-6, 1.866e-2, 2.488e+2
-0.949, -4.029e-6, 1.660e-2, 2.494e+2
-1.010, -5.006e-6, 1.816e-2, 2.501e+2
-1.071, -6.329e-6, 1.739e-2, 2.507e+2
-1.132, -7.737e-6, 1.957e-2, 2.513e+2
-1.193, -9.541e-6, 1.502e-2, 2.519e+2
-1.254, -1.155e-5, 1.964e-2, 2.525e+2
-1.315, -1.396e-5, 1.921e-2, 2.531e+2
-1.376, -1.660e-5, 2.115e-2, 2.537e+2
-1.437, -1.960e-5, 1.808e-2, 2.543e+2
-1.498, -2.285e-5, 2.274e-2, 2.549e+2
-1.559, -2.628e-5, 2.198e-2, 2.555e+2
-1.620, -2.977e-5, 2.301e-2, 2.561e+2
-1.681, -3.341e-5, 2.173e-2, 2.568e+2
-1.742, -3.699e-5, 2.872e-2, 2.574e+2
-1.803, -4.068e-5, 2.648e-2, 2.580e+2
-1.864, -4.443e-5, 3.470e-2, 2.586e+2
-1.925, -4.864e-5, 5.049e-2, 2.592e+2
-1.986, -5.324e-5, 8.148e-2, 2.598e+2
-1.953, -4.107e-5, 4.132e-2, 2.604e+2
-1.892, -3.114e-5, 3.039e-2, 2.610e+2
-1.831, -2.454e-5, 2.217e-2, 2.616e+2
-1.770, -1.976e-5, 2.042e-2, 2.623e+2
-1.709, -1.620e-5, 1.678e-2, 2.629e+2
-1.648, -1.334e-5, 2.036e-2, 2.635e+2
-1.587, -1.102e-5, 1.807e-2, 2.641e+2
-1.526, -9.176e-6, 2.267e-2, 2.647e+2
-1.465, -7.595e-6, 1.678e-2, 2.653e+2
-1.404, -6.164e-6, 2.094e-2, 2.659e+2
-1.343, -4.989e-6, 1.602e-2, 2.665e+2
-1.282, -3.922e-6, 1.895e-2, 2.671e+2
-1.221, -2.921e-6, 1.668e-2, 2.678e+2
-1.160, -2.034e-6, 1.929e-2, 2.684e+2
-1.099, -1.155e-6, 1.502e-2, 2.690e+2
-1.038, -3.116e-7, 2.013e-2, 2.696e+2
-0.977, 4.900e-7, 1.608e-2, 2.702e+2
-0.916, 1.240e-6, 1.799e-2, 2.708e+2
-0.855, 2.029e-6, 1.489e-2, 2.714e+2
-0.794, 2.807e-6, 1.986e-2, 2.720e+2
-0.733, 3.604e-6, 1.613e-2, 2.726e+2
-0.672, 4.471e-6, 1.844e-2, 2.732e+2
-0.611, 5.277e-6, 1.608e-2, 2.739e+2
-0.550, 6.056e-6, 1.989e-2, 2.745e+2
-0.489, 6.851e-6, 1.570e-2, 2.751e+2
-0.428, 7.504e-6, 1.871e-2, 2.757e+2
-0.367, 8.160e-6, 1.760e-2, 2.763e+2
-0.306, 8.737e-6, 1.864e-2, 2.769e+2
-0.245, 9.255e-6, 1.433e-2, 2.775e+2
-0.184, 9.719e-6, 1.864e-2, 2.781e+2
-0.123, 1.020e-5, 1.664e-2, 2.787e+2
-0.062, 1.058e-5, 1.774e-2, 2.794e+2
-0.001, 1.093e-5, 1.558e-2, 2.800e+2
-0.060, 8.324e-6, 1.920e-2, 2.806e+2
-0.121, 6.794e-6, 1.628e-2, 2.812e+2
-0.182, 5.598e-6, 1.707e-2, 2.818e+2
-0.243, 4.554e-6, 1.676e-2, 2.824e+2
-0.304, 3.647e-6, 1.763e-2, 2.830e+2
-0.365, 2.888e-6, 1.544e-2, 2.836e+2
-0.426, 2.088e-6, 1.764e-2, 2.842e+2
-0.487, 1.431e-6, 1.758e-2, 2.848e+2
-0.548, 7.306e-7, 1.792e-2, 2.855e+2
-0.609, 1.738e-7, 1.573e-2, 2.861e+2
-0.670, -5.362e-7, 1.832e-2, 2.867e+2
-0.731, -1.108e-6, 1.681e-2, 2.873e+2
-0.792, -1.856e-6, 1.827e-2, 2.879e+2
-0.853, -2.531e-6, 1.702e-2, 2.885e+2
-0.914, -3.359e-6, 1.858e-2, 2.891e+2
-0.975, -4.320e-6, 1.792e-2, 2.897e+2
-1.036, -5.440e-6, 1.671e-2, 2.903e+2
-1.097, -6.700e-6, 2.173e-2, 2.910e+2
-1.158, -8.317e-6, 1.870e-2, 2.916e+2
-1.219, -1.011e-5, 1.717e-2, 2.922e+2
-1.280, -1.230e-5, 1.969e-2, 2.928e+2
-1.341, -1.472e-5, 1.893e-2, 2.934e+2
-1.402, -1.752e-5, 1.959e-2, 2.940e+2
-1.463, -2.057e-5, 1.905e-2, 2.946e+2
-1.524, -2.392e-5, 2.343e-2, 2.952e+2
-1.585, -2.730e-5, 2.134e-2, 2.958e+2
-1.646, -3.094e-5, 2.328e-2, 2.964e+2
-1.707, -3.450e-5, 2.277e-2, 2.971e+2
-1.768, -3.816e-5, 2.507e-2, 2.977e+2
-1.829, -4.176e-5, 2.944e-2, 2.983e+2
-1.890, -4.575e-5, 3.779e-2, 2.989e+2
-1.951, -5.006e-5, 5.922e-2, 2.995e+2
-1.988, -4.941e-5, 7.964e-2, 3.001e+2
-1.927, -3.592e-5, 2.855e-2, 3.007e+2
-1.866, -2.780e-5, 2.465e-2, 3.013e+2
-1.805, -2.214e-5, 2.012e-2, 3.019e+2
-1.744, -1.793e-5, 2.078e-2, 3.026e+2
-1.683, -1.474e-5, 1.774e-2, 3.032e+2
-1.622, -1.220e-5, 1.998e-2, 3.038e+2
-1.561, -1.015e-5, 1.592e-2, 3.044e+2
-1.500, -8.377e-6, 1.958e-2, 3.050e+2
-1.439, -6.863e-6, 1.740e-2, 3.056e+2
-1.378, -5.586e-6, 1.960e-2, 3.062e+2
-1.317, -4.436e-6, 1.468e-2, 3.068e+2
-1.256, -3.448e-6, 1.957e-2, 3.074e+2
-1.195, -2.514e-6, 1.655e-2, 3.080e+2
-1.134, -1.638e-6, 1.832e-2, 3.087e+2
-1.073, -7.694e-7, 1.553e-2, 3.093e+2
-1.012, 8.274e-8, 2.014e-2, 3.099e+2
-0.951, 8.290e-7, 1.479e-2, 3.105e+2
-0.890, 1.632e-6, 1.834e-2, 3.111e+2
-0.829, 2.394e-6, 1.615e-2, 3.117e+2
-0.768, 3.195e-6, 1.937e-2, 3.123e+2
-0.707, 3.986e-6, 1.516e-2, 3.129e+2
-0.646, 4.842e-6, 1.920e-2, 3.135e+2
-0.585, 5.660e-6, 1.716e-2, 3.142e+2
-0.524, 6.462e-6, 1.829e-2, 3.148e+2
-0.463, 7.119e-6, 1.596e-2, 3.154e+2
-0.402, 7.814e-6, 1.981e-2, 3.160e+2
-0.341, 8.398e-6, 1.528e-2, 3.166e+2
-0.280, 9.002e-6, 1.841e-2, 3.172e+2
-0.219, 9.461e-6, 1.622e-2, 3.178e+2
-0.158, 9.963e-6, 1.876e-2, 3.184e+2
-0.097, 1.031e-5, 1.467e-2, 3.190e+2
-0.036, 1.075e-5, 1.907e-2, 3.197e+2
-0.025, 9.533e-6, 1.631e-2, 3.203e+2
-0.086, 7.692e-6, 1.757e-2, 3.209e+2
-0.147, 6.250e-6, 1.558e-2, 3.215e+2
-0.208, 5.148e-6, 1.911e-2, 3.221e+2
-0.269, 4.158e-6, 1.669e-2, 3.227e+2
-0.330, 3.332e-6, 1.788e-2, 3.233e+2
-0.391, 2.531e-6, 1.670e-2, 3.239e+2
-0.452, 1.828e-6, 1.899e-2, 3.245e+2
-0.513, 1.116e-6, 1.612e-2, 3.251e+2
-0.574, 5.762e-7, 1.885e-2, 3.258e+2
-0.635, -1.160e-7, 1.652e-2, 3.264e+2
-0.696, -7.085e-7, 1.820e-2, 3.270e+2
-0.757, -1.424e-6, 1.661e-2, 3.276e+2
-0.818, -2.056e-6, 1.908e-2, 3.282e+2
-0.879, -2.863e-6, 1.568e-2, 3.288e+2
-0.940, -3.659e-6, 1.850e-2, 3.294e+2
-1.001, -4.698e-6, 1.618e-2, 3.300e+2
-1.062, -5.815e-6, 1.900e-2, 3.306e+2
-1.123, -7.224e-6, 1.550e-2, 3.313e+2
-1.184, -8.870e-6, 1.977e-2, 3.319e+2
-1.245, -1.078e-5, 1.843e-2, 3.325e+2
-1.306, -1.295e-5, 1.905e-2, 3.331e+2
-1.367, -1.555e-5, 1.845e-2, 3.337e+2
-1.428, -1.846e-5, 2.219e-2, 3.343e+2
-1.489, -2.162e-5, 1.787e-2, 3.349e+2
-1.550, -2.499e-5, 2.253e-2, 3.355e+2
-1.611, -2.851e-5, 2.091e-2, 3.361e+2
-1.672, -3.211e-5, 2.488e-2, 3.367e+2
-1.733, -3.573e-5, 2.115e-2, 3.374e+2
-1.794, -3.938e-5, 2.510e-2, 3.380e+2
-1.855, -4.311e-5, 3.248e-2, 3.386e+2
-1.916, -4.719e-5, 4.325e-2, 3.392e+2
-1.977, -5.171e-5, 8.423e-2, 3.398e+2
-1.962, -4.228e-5, 5.136e-2, 3.404e+2
-1.901, -3.177e-5, 2.655e-2, 3.410e+2
-1.840, -2.497e-5, 2.077e-2, 3.416e+2
-1.779, -2.003e-5, 2.072e-2, 3.422e+2
-1.718, -1.642e-5, 1.994e-2, 3.429e+2
-1.657, -1.344e-5, 1.897e-2, 3.435e+2
-1.596, -1.114e-5, 1.758e-2, 3.441e+2
-1.535, -9.207e-6, 2.024e-2, 3.447e+2
-1.474, -7.597e-6, 1.574e-2, 3.453e+2
-1.413, -6.220e-6, 1.988e-2, 3.459e+2
-1.352, -5.042e-6, 1.732e-2, 3.465e+2
-1.291, -3.968e-6, 1.916e-2, 3.471e+2
-1.230, -2.955e-6, 1.557e-2, 3.477e+2
-1.169, -2.050e-6, 1.971e-2, 3.483e+2
-1.108, -1.231e-6, 1.610e-2, 3.490e+2
-1.047, -3.541e-7, 1.857e-2, 3.496e+2
-0.986, 4.556e-7, 1.616e-2, 3.502e+2
-0.925, 1.224e-6, 1.862e-2, 3.508e+2
-0.864, 1.979e-6, 1.548e-2, 3.514e+2
-0.803, 2.754e-6, 1.872e-2, 3.520e+2
-0.742, 3.543e-6, 1.696e-2, 3.526e+2
-0.681, 4.370e-6, 1.719e-2, 3.532e+2
-0.620, 5.211e-6, 1.736e-2, 3.538e+2
-0.559, 6.015e-6, 1.849e-2, 3.545e+2
-0.498, 6.796e-6, 1.679e-2, 3.551e+2
-0.437, 7.467e-6, 1.716e-2, 3.557e+2
-0.376, 8.112e-6, 1.824e-2, 3.563e+2
-0.315, 8.639e-6, 1.658e-2, 3.569e+2
-0.254, 9.228e-6, 1.804e-2, 3.575e+2
-0.193, 9.662e-6, 1.733e-2, 3.581e+2
-0.132, 1.014e-5, 1.852e-2, 3.587e+2
-0.071, 1.046e-5, 1.435e-2, 3.593e+2
-0.010, 1.093e-5, 1.985e-2, 3.599e+2
-0.051, 8.607e-6, 1.623e-2, 3.606e+2
-0.112, 7.059e-6, 1.854e-2, 3.612e+2
-0.173, 5.783e-6, 1.649e-2, 3.618e+2
-0.234, 4.732e-6, 1.990e-2, 3.624e+2
-0.295, 3.812e-6, 1.508e-2, 3.630e+2
-0.356, 2.998e-6, 1.905e-2, 3.636e+2
-0.417, 2.237e-6, 1.653e-2, 3.642e+2
-0.478, 1.540e-6, 1.818e-2, 3.648e+2
-0.539, 8.813e-7, 1.518e-2, 3.654e+2
-0.600, 2.513e-7, 1.950e-2, 3.661e+2
-0.661, -3.387e-7, 1.614e-2, 3.667e+2
-0.722, -1.030e-6, 1.876e-2, 3.673e+2
-0.783, -1.641e-6, 1.696e-2, 3.679e+2
-0.844, -2.310e-6, 1.847e-2, 3.685e+2
-0.905, -3.098e-6, 1.591e-2, 3.691e+2
-0.966, -4.034e-6, 1.798e-2, 3.697e+2
-1.027, -5.036e-6, 1.819e-2, 3.703e+2
-1.088, -6.279e-6, 1.726e-2, 3.709e+2
-1.149, -7.721e-6, 1.784e-2, 3.716e+2
-1.210, -9.485e-6, 1.980e-2, 3.722e+2
-1.271, -1.146e-5, 1.972e-2, 3.728e+2
-1.332, -1.384e-5, 1.732e-2, 3.734e+2
-1.393, -1.648e-5, 2.082e-2, 3.740e+2
-1.454, -1.950e-5, 1.945e-2, 3.746e+2
-1.515, -2.267e-5, 2.038e-2, 3.752e+2
-1.576, -2.611e-5, 2.125e-2, 3.758e+2
-1.637, -2.963e-5, 2.360e-2, 3.764e+2
-1.698, -3.335e-5, 2.236e-2, 3.770e+2
-1.759, -3.695e-5, 2.597e-2, 3.777e+2
-1.820, -4.079e-5, 2.787e-2, 3.783e+2
-1.881, -4.469e-5, 3.794e-2, 3.789e+2
-1.942, -4.895e-5, 5.719e-2, 3.795e+2
-1.997, -5.200e-5, 8.398e-2, 3.801e+2
-1.936, -3.707e-5, 3.280e-2, 3.807e+2
-1.875, -2.848e-5, 2.536e-2, 3.813e+2
-1.814, -2.267e-5, 1.935e-2, 3.819e+2
-1.753, -1.830e-5, 2.176e-2, 3.825e+2
-1.692, -1.501e-5, 1.686e-2, 3.832e+2
-1.631, -1.230e-5, 1.988e-2, 3.838e+2
-1.570, -1.023e-5, 1.754e-2, 3.844e+2
-1.509, -8.433e-6, 1.956e-2, 3.850e+2
-1.448, -6.943e-6, 1.701e-2, 3.856e+2
-1.387, -5.585e-6, 2.028e-2, 3.862e+2
-1.326, -4.499e-6, 1.589e-2, 3.868e+2
-1.265, -3.480e-6, 1.927e-2, 3.874e+2
-1.204, -2.528e-6, 1.625e-2, 3.880e+2
-1.143, -1.650e-6, 2.050e-2, 3.886e+2
-1.082, -8.143e-7, 1.627e-2, 3.893e+2
-1.021, 6.982e-8, 1.877e-2, 3.899e+2
-0.960, 8.142e-7, 1.660e-2, 3.905e+2
-0.899, 1.589e-6, 1.859e-2, 3.911e+2
-0.838, 2.373e-6, 1.654e-2, 3.917e+2
-0.777, 3.139e-6, 2.001e-2, 3.923e+2
-0.716, 3.988e-6, 1.565e-2, 3.929e+2
-0.655, 4.762e-6, 1.792e-2, 3.935e+2
-0.594, 5.606e-6, 1.652e-2, 3.941e+2
-0.533, 6.363e-6, 1.893e-2, 3.948e+2
-0.472, 7.135e-6, 1.562e-2, 3.954e+2
-0.411, 7.732e-6, 1.862e-2, 3.960e+2
-0.350, 8.364e-6, 1.683e-2, 3.966e+2
-0.289, 8.958e-6, 1.703e-2, 3.972e+2
-0.228, 9.435e-6, 1.664e-2, 3.978e+2
-0.167, 9.878e-6, 1.959e-2, 3.984e+2
-0.106, 1.033e-5, 1.677e-2, 3.990e+2
-0.045, 1.065e-5, 1.710e-2, 3.996e+2
-0.016, 9.998e-6, 1.826e-2, 4.002e+2
-0.077, 7.923e-6, 1.742e-2, 4.009e+2
-0.138, 6.512e-6, 1.697e-2, 4.015e+2
-0.199, 5.295e-6, 1.766e-2, 4.021e+2
-0.260, 4.389e-6, 1.784e-2, 4.027e+2
-0.321, 3.455e-6, 1.576e-2, 4.033e+2
-0.382, 2.707e-6, 1.830e-2, 4.039e+2
-0.443, 1.933e-6, 1.759e-2, 4.045e+2
-0.504, 1.287e-6, 1.716e-2, 4.051e+2
-0.565, 5.848e-7, 1.669e-2, 4.057e+2
-0.626, 6.797e-8, 1.791e-2, 4.064e+2
-0.687, -6.322e-7, 1.629e-2, 4.070e+2
-0.748, -1.164e-6, 1.868e-2, 4.076e+2
-0.809, -1.914e-6, 1.709e-2, 4.082e+2
-0.870, -2.552e-6, 1.814e-2, 4.088e+2
-0.931, -3.475e-6, 1.491e-2, 4.094e+2
-0.992, -4.327e-6, 1.963e-2, 4.100e+2
-1.053, -5.436e-6, 1.650e-2, 4.106e+2
-1.114, -6.695e-6, 1.804e-2, 4.112e+2
-1.175, -8.294e-6, 1.750e-2, 4.119e+2
-1.236, -1.013e-5, 1.973e-2, 4.125e+2
-1.297, -1.224e-5, 1.612e-2, 4.131e+2
-1.358, -1.469e-5, 2.212e-2, 4.137e+2
-1.419, -1.747e-5, 1.976e-2, 4.143e+2
-1.480, -2.053e-5, 2.239e-2, 4.149e+2
-1.541, -2.387e-5, 2.073e-2, 4.155e+2
-1.602, -2.735e-5, 2.469e-2, 4.161e+2
-1.663, -3.100e-5, 2.003e-2, 4.167e+2
-1.724, -3.467e-5, 2.338e-2, 4.173e+2
-1.785, -3.848e-5, 2.391e-2, 4.180e+2
-1.846, -4.219e-5, 3.163e-2, 4.186e+2
-1.907, -4.627e-5, 4.169e-2, 4.192e+2
-1.968, -5.061e-5, 7.138e-2, 4.198e+2
-1.971, -4.393e-5, 5.447e-2, 4.204e+2
-1.910, -3.281e-5, 3.100e-2, 4.210e+2
-1.849, -2.556e-5, 2.075e-2, 4.216e+2
-1.788, -2.050e-5, 2.242e-2, 4.222e+2
-1.727, -1.675e-5, 1.622e-2, 4.228e+2
-1.666, -1.377e-5, 1.967e-2, 4.235e+2
-1.605, -1.137e-5, 1.730e-2, 4.241e+2
-1.544, -9.448e-6, 2.028e-2, 4.247e+2
-1.483, -7.742e-6, 1.595e-2, 4.253e+2
-1.422, -6.264e-6, 1.984e-2, 4.259e+2
-1.361, -5.094e-6, 1.570e-2, 4.265e+2
-1.300, -3.981e-6, 3.105e-2, 4.271e+2
-1.239, -3.025e-6, 1.631e-2, 4.277e+2
-1.178, -2.090e-6, 1.951e-2, 4.283e+2
-1.117, -1.273e-6, 1.543e-2, 4.289e+2
-1.056, -3.910e-7, 1.914e-2, 4.296e+2
-0.995, 3.719e-7, 1.657e-2, 4.302e+2
-0.934, 1.248e-6, 1.759e-2, 4.308e+2
-0.873, 1.933e-6, 1.693e-2, 4.314e+2
-0.812, 2.744e-6, 1.965e-2, 4.320e+2
-0.751, 3.500e-6, 1.497e-2, 4.326e+2
-0.690, 4.370e-6, 1.855e-2, 4.332e+2
-0.629, 5.136e-6, 1.934e-2, 4.338e+2
-0.568, 6.056e-6, 1.756e-2, 4.344e+2
-0.507, 6.675e-6, 1.698e-2, 4.351e+2
-0.446, 7.469e-6, 1.838e-2, 4.357e+2
-0.385, 8.037e-6, 1.665e-2, 4.363e+2
-0.324, 8.694e-6, 1.749e-2, 4.369e+2
-0.263, 9.146e-6, 1.734e-2, 4.375e+2
-0.202, 9.699e-6, 1.746e-2, 4.381e+2
-0.141, 1.009e-5, 1.610e-2, 4.387e+2
-0.080, 1.054e-5, 1.848e-2, 4.393e+2
-0.019, 1.084e-5, 1.755e-2, 4.399e+2
-0.042, 9.021e-6, 1.627e-2, 4.405e+2
-0.103, 7.240e-6, 1.792e-2, 4.412e+2
-0.164, 6.020e-6, 1.721e-2, 4.418e+2
-0.225, 4.905e-6, 1.747e-2, 4.424e+2
-0.286, 3.996e-6, 1.665e-2, 4.430e+2
-0.347, 3.103e-6, 1.874e-2, 4.436e+2
-0.408, 2.400e-6, 1.616e-2, 4.442e+2
-0.469, 1.684e-6, 1.799e-2, 4.448e+2
-0.530, 1.043e-6, 1.698e-2, 4.454e+2
-0.591, 3.854e-7, 1.827e-2, 4.460e+2
-0.652, -1.449e-7, 1.726e-2, 4.467e+2
-0.713, -8.340e-7, 2.312e-2, 4.473e+2
-0.774, -1.503e-6, 1.533e-2, 4.479e+2
-0.835, -2.156e-6, 1.848e-2, 4.485e+2
-0.896, -2.879e-6, 1.757e-2, 4.491e+2
-0.957, -3.755e-6, 1.832e-2, 4.497e+2
-1.018, -4.743e-6, 1.619e-2, 4.503e+2
-1.079, -5.870e-6, 2.040e-2, 4.509e+2
-1.140, -7.246e-6, 1.658e-2, 4.515e+2
-1.201, -8.925e-6, 1.811e-2, 4.521e+2
-1.262, -1.085e-5, 1.793e-2, 4.528e+2
-1.323, -1.311e-5, 2.016e-2, 4.534e+2
-1.384, -1.572e-5, 1.852e-2, 4.540e+2
-1.445, -1.858e-5, 2.081e-2, 4.546e+2
-1.506, -2.181e-5, 2.020e-2, 4.552e+2
-1.567, -2.518e-5, 2.169e-2, 4.558e+2
-1.628, -2.868e-5, 2.030e-2, 4.564e+2
-1.689, -3.236e-5, 2.344e-2, 4.570e+2
-1.750, -3.600e-5, 2.219e-2, 4.576e+2
-1.811, -3.976e-5, 2.522e-2, 4.583e+2
-1.872, -4.363e-5, 3.284e-2, 4.589e+2
-1.933, -4.777e-5, 5.018e-2, 4.595e+2
-1.994, -5.227e-5, 8.764e-2, 4.601e+2
-1.945, -3.825e-5, 4.233e-2, 4.607e+2
-1.884, -2.914e-5, 2.577e-2, 4.613e+2
-1.823, -2.308e-5, 2.137e-2, 4.619e+2
-1.762, -1.857e-5, 1.922e-2, 4.625e+2
-1.701, -1.519e-5, 1.974e-2, 4.631e+2
-1.640, -1.246e-5, 1.771e-2, 4.638e+2
-1.579, -1.032e-5, 1.894e-2, 4.644e+2
-1.518, -8.513e-6, 1.874e-2, 4.650e+2
-1.457, -6.994e-6, 1.864e-2, 4.656e+2
-1.396, -5.632e-6, 1.754e-2, 4.662e+2
-1.335, -4.535e-6, 2.250e-2, 4.668e+2
-1.274, -3.486e-6, 1.634e-2, 4.674e+2
-1.213, -2.598e-6, 1.605e-2, 4.680e+2
-1.152, -1.670e-6, 1.858e-2, 4.686e+2
-1.091, -8.746e-7, 1.675e-2, 4.692e+2
-1.030, -1.078e-8, 1.754e-2, 4.699e+2
-0.969, 7.090e-7, 1.749e-2, 4.705e+2
-0.908, 1.572e-6, 1.972e-2, 4.711e+2
-0.847, 2.264e-6, 1.616e-2, 4.717e+2
-0.786, 3.112e-6, 1.767e-2, 4.723e+2
-0.725, 3.874e-6, 1.744e-2, 4.729e+2
-0.664, 4.727e-6, 1.811e-2, 4.735e+2
-0.603, 5.494e-6, 1.625e-2, 4.741e+2
-0.542, 6.383e-6, 1.904e-2, 4.747e+2
-0.481, 6.997e-6, 1.592e-2, 4.754e+2
-0.420, 7.753e-6, 1.850e-2, 4.760e+2
-0.359, 8.285e-6, 1.627e-2, 4.766e+2
-0.298, 8.928e-6, 1.824e-2, 4.772e+2
-0.237, 9.381e-6, 1.578e-2, 4.778e+2
-0.176, 9.866e-6, 1.906e-2, 4.784e+2
-0.115, 1.025e-5, 1.704e-2, 4.790e+2
-0.054, 1.066e-5, 1.950e-2, 4.796e+2
-0.007, 1.039e-5, 1.678e-2, 4.802e+2
-0.068, 8.194e-6, 1.902e-2, 4.808e+2
-0.129, 6.722e-6, 1.564e-2, 4.815e+2
-0.190, 5.551e-6, 1.852e-2, 4.821e+2
-0.251, 4.496e-6, 1.638e-2, 4.827e+2
-0.312, 3.641e-6, 1.874e-2, 4.833e+2
-0.373, 2.818e-6, 1.497e-2, 4.839e+2
-0.434, 2.113e-6, 1.939e-2, 4.845e+2
-0.495, 1.417e-6, 1.545e-2, 4.851e+2
-0.556, 7.656e-7, 1.889e-2, 4.857e+2
-0.617, 1.320e-7, 1.653e-2, 4.863e+2
-0.678, -4.211e-7, 1.922e-2, 4.870e+2
-0.739, -1.116e-6, 1.489e-2, 4.876e+2
-0.800, -1.715e-6, 1.956e-2, 4.882e+2
-0.861, -2.406e-6, 1.598e-2, 4.888e+2
-0.922, -3.188e-6, 1.865e-2, 4.894e+2
-0.983, -4.082e-6, 1.619e-2, 4.900e+2
-1.044, -5.068e-6, 1.977e-2, 4.906e+2
-1.105, -6.345e-6, 1.552e-2, 4.912e+2
-1.166, -7.778e-6, 1.912e-2, 4.918e+2
-1.227, -9.581e-6, 1.734e-2, 4.924e+2
-1.288, -1.151e-5, 1.990e-2, 4.931e+2
-1.349, -1.389e-5, 1.812e-2, 4.937e+2
-1.410, -1.658e-5, 2.102e-2, 4.943e+2
-1.471, -1.960e-5, 1.899e-2, 4.949e+2
-1.532, -2.284e-5, 2.161e-2, 4.955e+2
-1.593, -2.634e-5, 2.074e-2, 4.961e+2
-1.654, -2.987e-5, 2.463e-2, 4.967e+2
-1.715, -3.363e-5, 2.290e-2, 4.973e+2
-1.776, -3.727e-5, 2.579e-2, 4.979e+2
-1.837, -4.107e-5, 2.869e-2, 4.986e+2
-1.898, -4.497e-5, 4.298e-2, 4.992e+2
-1.959, -4.929e-5, 6.483e-2, 4.998e+2
-1.980, -4.569e-5, 6.679e-2, 5.004e+2
-1.919, -3.372e-5, 2.772e-2, 5.010e+2
-1.858, -2.624e-5, 2.349e-2, 5.016e+2
-1.797, -2.099e-5, 2.035e-2, 5.022e+2
-1.736, -1.699e-5, 1.936e-2, 5.028e+2
-1.675, -1.403e-5, 1.765e-2, 5.034e+2
-1.614, -1.145e-5, 1.970e-2, 5.041e+2
-1.553, -9.531e-6, 1.828e-2, 5.047e+2
-1.492, -7.773e-6, 1.806e-2, 5.053e+2
-1.431, -6.393e-6, 1.748e-2, 5.059e+2
-1.370, -5.091e-6, 1.878e-2, 5.065e+2
-1.309, -4.106e-6, 1.607e-2, 5.071e+2
-1.248, -3.057e-6, 1.907e-2, 5.077e+2
-1.187, -2.189e-6, 1.730e-2, 5.083e+2
-1.126, -1.287e-6, 1.776e-2, 5.089e+2
-1.065, -4.968e-7, 1.663e-2, 5.095e+2
-1.004, 3.670e-7, 1.882e-2, 5.102e+2
-0.943, 1.108e-6, 1.634e-2, 5.108e+2
-0.882, 1.951e-6, 1.904e-2, 5.114e+2
-0.821, 2.654e-6, 1.679e-2, 5.120e+2
-0.760, 3.459e-6, 1.832e-2, 5.126e+2
-0.699, 4.237e-6, 1.586e-2, 5.132e+2
-0.638, 5.086e-6, 1.902e-2, 5.138e+2
-0.577, 5.898e-6, 1.581e-2, 5.144e+2
-0.516, 6.674e-6, 1.780e-2, 5.150e+2
-0.455, 7.326e-6, 1.664e-2, 5.157e+2
-0.394, 7.987e-6, 1.887e-2, 5.163e+2
-0.333, 8.573e-6, 1.463e-2, 5.169e+2
-0.272, 9.139e-6, 1.924e-2, 5.175e+2
-0.211, 9.594e-6, 1.672e-2, 5.181e+2
-0.150, 1.007e-5, 1.788e-2, 5.187e+2
-0.089, 1.045e-5, 1.620e-2, 5.193e+2
-0.028, 1.085e-5, 1.962e-2, 5.199e+2
-0.033, 9.330e-6, 1.515e-2, 5.205e+2
-0.094, 7.506e-6, 1.854e-2, 5.211e+2
-0.155, 6.211e-6, 1.618e-2, 5.218e+2
-0.216, 5.080e-6, 1.797e-2, 5.224e+2
-0.277, 4.145e-6, 1.577e-2, 5.230e+2
-0.338, 3.283e-6, 1.973e-2, 5.236e+2
-0.399, 2.505e-6, 1.509e-2, 5.242e+2
-0.460, 1.820e-6, 1.817e-2, 5.248e+2
-0.521, 1.125e-6, 1.696e-2, 5.254e+2
-0.582, 5.072e-7, 1.929e-2, 5.260e+2
-0.643, -5.138e-8, 1.514e-2, 5.266e+2
-0.704, -7.183e-7, 1.882e-2, 5.273e+2
-0.765, -1.350e-6, 1.591e-2, 5.279e+2
-0.826, -2.016e-6, 1.774e-2, 5.285e+2
-0.887, -2.701e-6, 1.698e-2, 5.291e+2
-0.948, -3.485e-6, 1.936e-2, 5.297e+2
-1.009, -4.449e-6, 1.498e-2, 5.303e+2
-1.070, -5.571e-6, 1.968e-2, 5.309e+2
-1.131, -6.844e-6, 1.645e-2, 5.315e+2
-1.192, -8.435e-6, 1.768e-2, 5.321e+2
-1.253, -1.024e-5, 1.724e-2, 5.327e+2
-1.314, -1.239e-5, 2.030e-2, 5.334e+2
-1.375, -1.480e-5, 1.849e-2, 5.340e+2
-1.436, -1.764e-5, 2.012e-2, 5.346e+2
-1.497, -2.070e-5, 2.007e-2, 5.352e+2
-1.558, -2.411e-5, 2.217e-2, 5.358e+2
-1.619, -2.757e-5, 2.093e-2, 5.364e+2
-1.680, -3.129e-5, 2.385e-2, 5.370e+2
-1.741, -3.504e-5, 2.527e-2, 5.376e+2
-1.802, -3.887e-5, 2.483e-2, 5.382e+2
-1.863, -4.265e-5, 3.531e-2, 5.389e+2
-1.924, -4.677e-5, 5.062e-2, 5.395e+2
-1.985, -5.118e-5, 8.789e-2, 5.401e+2
-1.954, -3.966e-5, 4.546e-2, 5.407e+2
-1.893, -2.999e-5, 2.804e-2, 5.413e+2
-1.832, -2.368e-5, 1.902e-2, 5.419e+2
-1.771, -1.898e-5, 2.026e-2, 5.425e+2
-1.710, -1.553e-5, 1.765e-2, 5.431e+2
-1.649, -1.269e-5, 1.801e-2, 5.437e+2
-1.588, -1.051e-5, 1.857e-2, 5.443e+2
-1.527, -8.633e-6, 1.956e-2, 5.450e+2
-1.466, -7.061e-6, 1.741e-2, 5.456e+2
-1.405, -5.665e-6, 1.816e-2, 5.462e+2
-1.344, -4.624e-6, 1.639e-2, 5.468e+2
-1.283, -3.532e-6, 1.869e-2, 5.474e+2
-1.222, -2.654e-6, 1.610e-2, 5.480e+2
-1.161, -1.732e-6, 1.872e-2, 5.486e+2
-1.100, -9.607e-7, 1.621e-2, 5.492e+2
-1.039, -6.369e-8, 1.786e-2, 5.498e+2
-0.978, 6.820e-7, 1.719e-2, 5.505e+2
-0.917, 1.489e-6, 1.953e-2, 5.511e+2
-0.856, 2.229e-6, 1.515e-2, 5.517e+2
-0.795, 3.042e-6, 1.836e-2, 5.523e+2
-0.734, 3.755e-6, 1.697e-2, 5.529e+2
-0.673, 4.666e-6, 1.740e-2, 5.535e+2
-0.612, 5.446e-6, 1.651e-2, 5.541e+2
-0.551, 6.252e-6, 1.843e-2, 5.547e+2
-0.490, 6.915e-6, 1.587e-2, 5.553e+2
-0.429, 7.671e-6, 1.775e-2, 5.560e+2
-0.368, 8.205e-6, 1.714e-2, 5.566e+2
-0.307, 8.853e-6, 1.877e-2, 5.572e+2
-0.246, 9.299e-6, 1.592e-2, 5.578e+2
-0.185, 9.835e-6, 1.879e-2, 5.584e+2
-0.124, 1.022e-5, 1.669e-2, 5.590e+2
-0.063, 1.067e-5, 1.699e-2, 5.596e+2
-0.002, 1.098e-5, 1.757e-2, 5.602e+2
-0.059, 8.504e-6, 1.785e-2, 5.608e+2
-0.120, 6.904e-6, 1.717e-2, 5.614e+2
-0.181, 5.731e-6, 1.748e-2, 5.621e+2
-0.242, 4.668e-6, 1.761e-2, 5.627e+2
-0.303, 3.782e-6, 1.679e-2, 5.633e+2
-0.364, 2.942e-6, 1.880e-2, 5.639e+2
-0.425, 2.245e-6, 1.844e-2, 5.645e+2
-0.486, 1.548e-6, 1.735e-2, 5.651e+2
-0.547, 8.752e-7, 1.642e-2, 5.657e+2
-0.608, 2.538e-7, 1.922e-2, 5.663e+2
-0.669, -3.184e-7, 1.535e-2, 5.669e+2
-0.730, -9.644e-7, 1.864e-2, 5.676e+2
-0.791, -1.639e-6, 1.669e-2, 5.682e+2
-0.852, -2.258e-6, 1.945e-2, 5.688e+2
-0.913, -3.015e-6, 1.554e-2, 5.694e+2
-0.974, -3.870e-6, 1.949e-2, 5.700e+2
-1.035, -4.831e-6, 1.658e-2, 5.706e+2
-1.096, -5.934e-6, 1.788e-2, 5.712e+2
-1.157, -7.355e-6, 1.683e-2, 5.718e+2
-1.218, -9.039e-6, 2.015e-2, 5.724e+2
-1.279, -1.098e-5, 1.581e-2, 5.730e+2
-1.340, -1.320e-5, 2.037e-2, 5.737e+2
-1.401, -1.585e-5, 1.915e-2, 5.743e+2
-1.462, -1.867e-5, 2.006e-2, 5.749e+2
-1.523, -2.198e-5, 1.981e-2, 5.755e+2
-1.584, -2.531e-5, 2.314e-2, 5.761e+2
-1.645, -2.899e-5, 2.051e-2, 5.767e+2
-1.706, -3.265e-5, 2.204e-2, 5.773e+2
-1.767, -3.643e-5, 2.564e-2, 5.779e+2
-1.828, -4.014e-5, 3.042e-2, 5.785e+2
-1.889, -4.415e-5, 3.644e-2, 5.792e+2
-1.950, -4.833e-5, 5.764e-2, 5.798e+2
-1.989, -4.795e-5, 7.450e-2, 5.804e+2
-1.928, -3.471e-5, 3.039e-2, 5.810e+2
-1.867, -2.684e-5, 2.424e-2, 5.816e+2
-1.806, -2.138e-5, 1.800e-2, 5.822e+2
-1.745, -1.729e-5, 2.102e-2, 5.828e+2
-1.684, -1.415e-5, 1.783e-2, 5.834e+2
-1.623, -1.163e-5, 2.075e-2, 5.840e+2
-1.562, -9.680e-6, 1.625e-2, 5.846e+2
-1.501, -7.872e-6, 1.910e-2, 5.853e+2
-1.440, -6.449e-6, 1.779e-2, 5.859e+2
-1.379, -5.146e-6, 1.768e-2, 5.865e+2
-1.318, -4.168e-6, 1.649e-2, 5.871e+2
-1.257, -3.124e-6, 2.017e-2, 5.877e+2
-1.196, -2.226e-6, 1.564e-2, 5.883e+2
-1.135, -1.351e-6, 1.843e-2, 5.889e+2
-1.074, -5.411e-7, 1.670e-2, 5.895e+2
-1.013, 3.294e-7, 1.766e-2, 5.901e+2
-0.952, 1.006e-6, 1.682e-2, 5.908e+2
-0.891, 1.877e-6, 1.812e-2, 5.914e+2
-0.830, 2.558e-6, 1.628e-2, 5.920e+2
-0.769, 3.393e-6, 1.590e-2, 5.926e+2
-0.708, 4.164e-6, 1.815e-2, 5.932e+2
-0.647, 5.005e-6, 1.633e-2, 5.938e+2
-0.586, 5.809e-6, 1.746e-2, 5.944e+2
-0.525, 6.583e-6, 1.751e-2, 5.950e+2
-0.464, 7.288e-6, 1.739e-2, 5.956e+2
-0.403, 7.940e-6, 1.521e-2, 5.963e+2
-0.342, 8.504e-6, 1.981e-2, 5.969e+2
-0.281, 9.058e-6, 1.559e-2, 5.975e+2
-0.220, 9.557e-6, 1.873e-2, 5.981e+2
-0.159, 1.004e-5, 1.600e-2, 5.987e+2
-0.098, 1.042e-5, 1.899e-2, 5.993e+2
-0.037, 1.080e-5, 1.478e-2, 5.999e+2
-0.024, 9.703e-6, 1.990e-2, 6.005e+2
-0.085, 7.749e-6, 1.615e-2, 6.011e+2
-0.146, 6.421e-6, 1.782e-2, 6.017e+2
-0.207, 5.248e-6, 1.711e-2, 6.024e+2
-0.268, 4.333e-6, 1.892e-2, 6.030e+2
-0.329, 3.430e-6, 1.461e-2, 6.036e+2
-0.390, 2.673e-6, 1.886e-2, 6.042e+2
-0.451, 1.888e-6, 1.698e-2, 6.048e+2
-0.512, 1.245e-6, 1.713e-2, 6.054e+2
-0.573, 5.786e-7, 1.760e-2, 6.060e+2
-0.634, 8.643e-8, 1.766e-2, 6.066e+2
-0.695, -5.989e-7, 1.737e-2, 6.072e+2
-0.756, -1.225e-6, 1.675e-2, 6.079e+2
-0.817, -1.880e-6, 1.935e-2, 6.085e+2
-0.878, -2.544e-6, 1.638e-2, 6.091e+2
-0.939, -3.323e-6, 1.753e-2, 6.097e+2
-1.000, -4.234e-6, 1.695e-2, 6.103e+2
-1.061, -5.281e-6, 1.790e-2, 6.109e+2
-1.122, -6.538e-6, 1.714e-2, 6.115e+2
-1.183, -8.003e-6, 2.072e-2, 6.121e+2
-1.244, -9.782e-6, 1.574e-2, 6.127e+2
-1.305, -1.179e-5, 1.967e-2, 6.133e+2
-1.366, -1.419e-5, 1.721e-2, 6.140e+2
-1.427, -1.691e-5, 2.073e-2, 6.146e+2
-1.488, -1.995e-5, 1.641e-2, 6.152e+2
-1.549, -2.320e-5, 2.326e-2, 6.158e+2
-1.610, -2.673e-5, 2.203e-2, 6.164e+2
-1.671, -3.037e-5, 2.201e-2, 6.170e+2
-1.732, -3.416e-5, 2.247e-2, 6.176e+2
-1.793, -3.785e-5, 2.631e-2, 6.182e+2
-1.854, -4.172e-5, 2.788e-2, 6.188e+2
-1.915, -4.578e-5, 4.619e-2, 6.195e+2
-1.976, -5.019e-5, 8.072e-2, 6.201e+2
-1.963, -4.121e-5, 5.412e-2, 6.207e+2
-1.902, -3.101e-5, 2.853e-2, 6.213e+2
-1.841, -2.434e-5, 2.326e-2, 6.219e+2
-1.780, -1.952e-5, 1.865e-2, 6.225e+2
-1.719, -1.586e-5, 1.880e-2, 6.231e+2
-1.658, -1.299e-5, 2.028e-2, 6.237e+2
-1.597, -1.065e-5, 1.681e-2, 6.243e+2
-1.536, -8.816e-6, 1.807e-2, 6.249e+2
-1.475, -7.186e-6, 1.712e-2, 6.256e+2
-1.414, -5.811e-6, 1.846e-2, 6.262e+2
-1.353, -4.690e-6, 1.536e-2, 6.268e+2
-1.292, -3.668e-6, 2.053e-2, 6.274e+2
-1.231, -2.692e-6, 1.463e-2, 6.280e+2
-1.170, -1.808e-6, 1.869e-2, 6.286e+2
-1.109, -9.970e-7, 1.605e-2, 6.292e+2
-1.048, -1.406e-7, 1.886e-2, 6.298e+2
-0.987, 6.309e-7, 1.525e-2, 6.304e+2
-0.926, 1.434e-6, 1.900e-2, 6.311e+2
-0.865, 2.197e-6, 1.593e-2, 6.317e+2
-0.804, 3.011e-6, 1.848e-2, 6.323e+2
-0.743, 3.731e-6, 1.713e-2, 6.329e+2
-0.682, 4.573e-6, 1.883e-2, 6.335e+2
-0.621, 5.312e-6, 1.455e-2, 6.341e+2
-0.560, 6.228e-6, 1.844e-2, 6.347e+2
-0.499, 6.861e-6, 1.792e-2, 6.353e+2
-0.438, 7.575e-6, 1.736e-2, 6.359e+2
-0.377, 8.169e-6, 1.763e-2, 6.365e+2
-0.316, 8.806e-6, 1.807e-2, 6.372e+2
-0.255, 9.245e-6, 1.630e-2, 6.378e+2
-0.194, 9.773e-6, 1.726e-2, 6.384e+2
-0.133, 1.017e-5, 2.002e-2, 6.390e+2
-0.072, 1.059e-5, 1.593e-2, 6.396e+2
-0.011, 1.096e-5, 1.838e-2, 6.402e+2
-0.050, 8.796e-6, 1.700e-2, 6.408e+2
-0.111, 7.165e-6, 1.775e-2, 6.414e+2
-0.172, 5.936e-6, 1.631e-2, 6.420e+2
-0.233, 4.849e-6, 1.971e-2, 6.427e+2
-0.294, 3.908e-6, 1.474e-2, 6.433e+2
-0.355, 3.104e-6, 1.887e-2, 6.439e+2
-0.416, 2.351e-6, 1.646e-2, 6.445e+2
-0.477, 1.646e-6, 1.813e-2, 6.451e+2
-0.538, 9.859e-7, 1.633e-2, 6.457e+2
-0.599, 3.608e-7, 1.928e-2, 6.463e+2
-0.660, -2.372e-7, 1.499e-2, 6.469e+2
-0.721, -8.161e-7, 1.783e-2, 6.475e+2
-0.782, -1.513e-6, 1.745e-2, 6.482e+2
-0.843, -2.110e-6, 1.862e-2, 6.488e+2
-0.904, -2.912e-6, 1.533e-2, 6.494e+2
-0.965, -3.638e-6, 1.893e-2, 6.500e+2
-1.026, -4.640e-6, 1.638e-2, 6.506e+2
-1.087, -5.655e-6, 1.773e-2, 6.512e+2
-1.148, -7.034e-6, 1.785e-2, 6.518e+2
-1.209, -8.583e-6, 1.849e-2, 6.524e+2
-1.270, -1.045e-5, 1.777e-2, 6.530e+2
-1.331, -1.257e-5, 1.973e-2, 6.536e+2
-1.392, -1.511e-5, 2.062e-2, 6.543e+2
-1.453, -1.790e-5, 1.854e-2, 6.549e+2
-1.514, -2.104e-5, 2.090e-2, 6.555e+2
-1.575, -2.445e-5, 1.984e-2, 6.561e+2
-1.636, -2.803e-5, 2.109e-2, 6.567e+2
-1.697, -3.169e-5, 2.170e-2, 6.573e+2
-1.758, -3.545e-5, 2.699e-2, 6.579e+2
-1.819, -3.926e-5, 2.377e-2, 6.585e+2
-1.880, -4.316e-5, 3.884e-2, 6.591e+2
-1.941, -4.735e-5, 6.260e-2, 6.598e+2
-1.998, -5.083e-5, 9.778e-2, 6.604e+2
-1.937, -3.612e-5, 3.609e-2, 6.610e+2
-1.876, -2.766e-5, 2.516e-2, 6.616e+2
-1.815, -2.189e-5, 1.800e-2, 6.622e+2
-1.754, -1.765e-5, 2.065e-2, 6.628e+2
-1.693, -1.444e-5, 1.829e-2, 6.634e+2
-1.632, -1.183e-5, 1.874e-2, 6.640e+2
-1.571, -9.824e-6, 1.757e-2, 6.646e+2
-1.510, -7.965e-6, 1.921e-2, 6.652e+2
-1.449, -6.554e-6, 1.580e-2, 6.659e+2
-1.388, -5.279e-6, 1.899e-2, 6.665e+2
-1.327, -4.218e-6, 1.798e-2, 6.671e+2
-1.266, -3.131e-6, 1.677e-2, 6.677e+2
-1.205, -2.334e-6, 1.746e-2, 6.683e+2
-1.144, -1.410e-6, 1.777e-2, 6.689e+2
-1.083, -6.112e-7, 1.646e-2, 6.695e+2
-1.022, 2.685e-7, 1.698e-2, 6.701e+2
-0.961, 9.773e-7, 2.204e-2, 6.707e+2
-0.900, 1.762e-6, 1.562e-2, 6.714e+2
-0.839, 2.553e-6, 1.948e-2, 6.720e+2
-0.778, 3.267e-6, 1.719e-2, 6.726e+2
-0.717, 4.101e-6, 1.844e-2, 6.732e+2
-0.656, 4.906e-6, 1.602e-2, 6.738e+2
-0.595, 5.693e-6, 1.980e-2, 6.744e+2
-0.534, 6.530e-6, 1.516e-2, 6.750e+2
-0.473, 7.227e-6, 2.115e-2, 6.756e+2
-0.412, 7.819e-6, 1.645e-2, 6.762e+2
-0.351, 8.420e-6, 1.838e-2, 6.768e+2
-0.290, 8.997e-6, 1.590e-2, 6.775e+2
-0.229, 9.508e-6, 1.927e-2, 6.781e+2
-0.168, 9.953e-6, 1.502e-2, 6.787e+2
-0.107, 1.038e-5, 1.851e-2, 6.793e+2
-0.046, 1.071e-5, 1.866e-2, 6.799e+2
-0.015, 1.010e-5, 1.754e-2, 6.805e+2
-0.076, 8.006e-6, 1.604e-2, 6.811e+2
-0.137, 6.640e-6, 1.866e-2, 6.817e+2
-0.198, 5.393e-6, 1.631e-2, 6.823e+2
-0.259, 4.523e-6, 1.739e-2, 6.830e+2
-0.320, 3.580e-6, 1.817e-2, 6.836e+2
-0.381, 2.803e-6, 1.670e-2, 6.842e+2
-0.442, 1.997e-6, 1.799e-2, 6.848e+2
-0.503, 1.372e-6, 1.765e-2, 6.854e+2
-0.564, 7.201e-7, 1.693e-2, 6.860e+2
-0.625, 1.166e-7, 1.641e-2, 6.866e+2
-0.686, -4.427e-7, 1.958e-2, 6.872e+2
-0.747, -1.091e-6, 1.557e-2, 6.878e+2
-0.808, -1.762e-6, 1.877e-2, 6.885e+2
-0.869, -2.418e-6, 1.743e-2, 6.891e+2
-0.930, -3.124e-6, 1.869e-2, 6.897e+2
-0.991, -4.014e-6, 1.524e-2, 6.903e+2
-1.052, -5.026e-6, 2.085e-2, 6.909e+2
-1.113, -6.210e-6, 1.674e-2, 6.915e+2
-1.174, -7.593e-6, 1.873e-2, 6.921e+2
-1.235, -9.350e-6, 1.704e-2, 6.927e+2
-1.296, -1.126e-5, 2.005e-2, 6.933e+2
-1.357, -1.359e-5, 1.684e-2, 6.939e+2
-1.418, -1.619e-5, 2.331e-2, 6.946e+2
-1.479, -1.919e-5, 1.918e-2, 6.952e+2
-1.540, -2.238e-5, 2.129e-2, 6.958e+2
-1.601, -2.586e-5, 2.218e-2, 6.964e+2
-1.662, -2.949e-5, 2.339e-2, 6.970e+2
-1.723, -3.329e-5, 2.142e-2, 6.976e+2
-1.784, -3.702e-5, 2.590e-2, 6.982e+2
-1.845, -4.093e-5, 3.061e-2, 6.988e+2
-1.906, -4.490e-5, 4.523e-2, 6.994e+2
-1.967, -4.923e-5, 7.162e-2, 7.001e+2
-1.972, -4.290e-5, 5.856e-2, 7.007e+2
-1.911, -3.194e-5, 3.030e-2, 7.013e+2
-1.850, -2.482e-5, 2.119e-2, 7.019e+2
-1.789, -1.988e-5, 1.949e-2, 7.025e+2
-1.728, -1.609e-5, 1.685e-2, 7.031e+2
-1.667, -1.320e-5, 2.105e-2, 7.037e+2
-1.606, -1.078e-5, 1.679e-2, 7.043e+2
-1.545, -8.913e-6, 1.819e-2, 7.049e+2
-1.484, -7.282e-6, 1.714e-2, 7.055e+2
-1.423, -5.876e-6, 1.938e-2, 7.062e+2
-1.362, -4.728e-6, 1.639e-2, 7.068e+2
-1.301, -3.678e-6, 1.885e-2, 7.074e+2
-1.240, -2.738e-6, 1.629e-2, 7.080e+2
-1.179, -1.898e-6, 1.772e-2, 7.086e+2
-1.118, -1.007e-6, 1.691e-2, 7.092e+2
-1.057, -2.243e-7, 2.007e-2, 7.098e+2
-0.996, 5.651e-7, 1.434e-2, 7.104e+2
-0.935, 1.359e-6, 1.970e-2, 7.110e+2
-0.874, 2.128e-6, 1.564e-2, 7.117e+2
-0.813, 2.869e-6, 1.817e-2, 7.123e+2
-0.752, 3.648e-6, 1.576e-2, 7.129e+2
-0.691, 4.461e-6, 1.927e-2, 7.135e+2
-0.630, 5.289e-6, 1.520e-2, 7.141e+2
-0.569, 6.090e-6, 1.878e-2, 7.147e+2
-0.508, 6.839e-6, 1.689e-2, 7.153e+2
-0.447, 7.486e-6, 1.819e-2, 7.159e+2
-0.386, 8.102e-6, 1.559e-2, 7.165e+2
-0.325, 8.692e-6, 1.965e-2, 7.171e+2
-0.264, 9.213e-6, 1.444e-2, 7.178e+2
-0.203, 9.687e-6, 1.933e-2, 7.184e+2
-0.142, 1.014e-5, 1.656e-2, 7.190e+2
-0.081, 1.053e-5, 1.686e-2, 7.196e+2
-0.020, 1.094e-5, 1.661e-2, 7.202e+2
-0.041, 9.079e-6, 1.924e-2, 7.208e+2
-0.102, 7.403e-6, 1.572e-2, 7.214e+2
-0.163, 6.094e-6, 1.853e-2, 7.220e+2
-0.224, 5.014e-6, 1.681e-2, 7.226e+2
-0.285, 4.068e-6, 1.748e-2, 7.233e+2
-0.346, 3.222e-6, 1.618e-2, 7.239e+2
-0.407, 2.436e-6, 1.864e-2, 7.245e+2
-0.468, 1.772e-6, 1.633e-2, 7.251e+2
-0.529, 1.050e-6, 1.682e-2, 7.257e+2
-0.590, 4.796e-7, 1.839e-2, 7.263e+2
-0.651, -1.111e-7, 1.592e-2, 7.269e+2
-0.712, -7.048e-7, 1.774e-2, 7.275e+2
-0.773, -1.398e-6, 1.741e-2, 7.281e+2
-0.834, -1.984e-6, 1.698e-2, 7.287e+2
-0.895, -2.722e-6, 1.598e-2, 7.294e+2
-0.956, -3.470e-6, 1.906e-2, 7.300e+2
-1.017, -4.422e-6, 1.577e-2, 7.306e+2
-1.078, -5.408e-6, 1.837e-2, 7.312e+2
-1.139, -6.741e-6, 1.736e-2, 7.318e+2
-1.200, -8.197e-6, 1.881e-2, 7.324e+2
-1.261, -1.006e-5, 1.546e-2, 7.330e+2
-1.322, -1.206e-5, 2.025e-2, 7.336e+2
-1.383, -1.450e-5, 1.699e-2, 7.342e+2
-1.444, -1.727e-5, 2.020e-2, 7.349e+2
-1.505, -2.041e-5, 1.896e-2, 7.355e+2
-1.566, -2.374e-5, 2.351e-2, 7.361e+2
-1.627, -2.729e-5, 2.013e-2, 7.367e+2
-1.688, -3.114e-5, 2.501e-2, 7.373e+2
-1.749, -3.487e-5, 2.005e-2, 7.379e+2
-1.810, -3.874e-5, 2.789e-2, 7.385e+2
-1.871, -4.262e-5, 3.411e-2, 7.391e+2
-1.932, -4.671e-5, 5.333e-2, 7.397e+2
-1.993, -5.116e-5, 9.422e-2, 7.404e+2
-1.946, -3.755e-5, 4.226e-2, 7.410e+2
-1.885, -2.858e-5, 2.199e-2, 7.416e+2
-1.824, -2.262e-5, 2.087e-2, 7.422e+2
-1.763, -1.818e-5, 1.900e-2, 7.428e+2
-1.702, -1.483e-5, 1.980e-2, 7.434e+2
-1.641, -1.216e-5, 1.547e-2, 7.440e+2
-1.580, -1.003e-5, 2.117e-2, 7.446e+2
-1.519, -8.187e-6, 1.722e-2, 7.452e+2
-1.458, -6.645e-6, 1.858e-2, 7.458e+2
-1.397, -5.389e-6, 1.690e-2, 7.465e+2
-1.336, -4.284e-6, 2.046e-2, 7.471e+2
-1.275, -3.300e-6, 1.440e-2, 7.477e+2
-1.214, -2.346e-6, 1.979e-2, 7.483e+2
-1.153, -1.512e-6, 1.624e-2, 7.489e+2
-1.092, -6.475e-7, 1.827e-2, 7.495e+2
-1.031, 1.178e-7, 1.590e-2, 7.501e+2
-0.970, 9.354e-7, 1.876e-2, 7.507e+2
-0.909, 1.703e-6, 1.451e-2, 7.513e+2
-0.848, 2.492e-6, 1.958e-2, 7.520e+2
-0.787, 3.227e-6, 1.689e-2, 7.526e+2
-0.726, 4.079e-6, 1.761e-2, 7.532e+2
-0.665, 4.821e-6, 1.685e-2, 7.538e+2
-0.604, 5.694e-6, 1.836e-2, 7.544e+2
-0.543, 6.394e-6, 1.570e-2, 7.550e+2
-0.482, 7.165e-6, 1.922e-2, 7.556e+2
-0.421, 7.779e-6, 1.611e-2, 7.562e+2
-0.360, 8.435e-6, 1.704e-2, 7.568e+2
-0.299, 8.908e-6, 1.640e-2, 7.574e+2
-0.238, 9.469e-6, 1.822e-2, 7.581e+2
-0.177, 9.891e-6, 1.579e-2, 7.587e+2
-0.116, 1.036e-5, 1.794e-2, 7.593e+2
-0.055, 1.071e-5, 1.711e-2, 7.599e+2
-0.006, 1.065e-5, 1.664e-2, 7.605e+2
-0.067, 8.281e-6, 1.711e-2, 7.611e+2
-0.128, 6.896e-6, 1.822e-2, 7.617e+2
-0.189, 5.612e-6, 1.616e-2, 7.623e+2
-0.250, 4.664e-6, 1.849e-2, 7.629e+2
-0.311, 3.712e-6, 1.737e-2, 7.636e+2
-0.372, 2.924e-6, 1.667e-2, 7.642e+2
-0.433, 2.143e-6, 1.777e-2, 7.648e+2
-0.494, 1.509e-6, 1.663e-2, 7.654e+2
-0.555, 7.786e-7, 1.636e-2, 7.660e+2
-0.616, 2.464e-7, 1.748e-2, 7.666e+2
-0.677, -3.750e-7, 2.069e-2, 7.672e+2
-0.738, -1.005e-6, 1.606e-2, 7.678e+2
-0.799, -1.644e-6, 1.849e-2, 7.684e+2
-0.860, -2.226e-6, 1.788e-2, 7.690e+2
-0.921, -2.980e-6, 1.702e-2, 7.697e+2
-0.982, -3.804e-6, 1.717e-2, 7.703e+2
-1.043, -4.779e-6, 1.956e-2, 7.709e+2
-1.104, -5.907e-6, 1.598e-2, 7.715e+2
-1.165, -7.310e-6, 2.402e-2, 7.721e+2
-1.226, -8.925e-6, 1.736e-2, 7.727e+2
-1.287, -1.085e-5, 1.826e-2, 7.733e+2
-1.348, -1.307e-5, 1.786e-2, 7.739e+2
-1.409, -1.564e-5, 1.961e-2, 7.745e+2
-1.470, -1.849e-5, 1.810e-2, 7.752e+2
-1.531, -2.170e-5, 2.140e-2, 7.758e+2
-1.592, -2.505e-5, 2.169e-2, 7.764e+2
-1.653, -2.872e-5, 2.163e-2, 7.770e+2
-1.714, -3.257e-5, 2.248e-2, 7.776e+2
-1.775, -3.645e-5, 2.541e-2, 7.782e+2
-1.836, -4.034e-5, 2.754e-2, 7.788e+2
-1.897, -4.440e-5, 4.258e-2, 7.794e+2
-1.958, -4.864e-5, 6.687e-2, 7.800e+2
-1.981, -4.535e-5, 6.985e-2, 7.807e+2
-1.920, -3.326e-5, 3.323e-2, 7.813e+2
-1.859, -2.578e-5, 2.428e-2, 7.819e+2
-1.798, -2.053e-5, 1.859e-2, 7.825e+2
-1.737, -1.668e-5, 1.937e-2, 7.831e+2
-1.676, -1.359e-5, 1.859e-2, 7.837e+2
-1.615, -1.116e-5, 1.715e-2, 7.843e+2
-1.554, -9.145e-6, 1.900e-2, 7.849e+2
-1.493, -7.523e-6, 1.886e-2, 7.855e+2
-1.432, -6.020e-6, 1.748e-2, 7.861e+2
-1.371, -4.918e-6, 1.815e-2, 7.868e+2
-1.310, -3.800e-6, 1.863e-2, 7.874e+2
-1.249, -2.870e-6, 1.688e-2, 7.880e+2
-1.188, -1.937e-6, 1.764e-2, 7.886e+2
-1.127, -1.118e-6, 1.806e-2, 7.892e+2
-1.066, -2.323e-7, 1.566e-2, 7.898e+2
-1.005, 4.992e-7, 1.827e-2, 7.904e+2
-0.944, 1.352e-6, 1.721e-2, 7.910e+2
-0.883, 2.090e-6, 1.735e-2, 7.916e+2
-0.822, 2.869e-6, 1.705e-2, 7.923e+2
-0.761, 3.602e-6, 1.829e-2, 7.929e+2
-0.700, 4.459e-6, 1.548e-2, 7.935e+2
-0.639, 5.245e-6, 1.837e-2, 7.941e+2
-0.578, 6.059e-6, 1.739e-2, 7.947e+2
-0.517, 6.784e-6, 1.709e-2, 7.953e+2
-0.456, 7.469e-6, 1.661e-2, 7.959e+2
-0.395, 8.075e-6, 1.891e-2, 7.965e+2
-0.334, 8.665e-6, 1.577e-2, 7.971e+2
-0.273, 9.170e-6, 1.845e-2, 7.977e+2
-0.212, 9.703e-6, 1.667e-2, 7.984e+2
-0.151, 1.013e-5, 1.770e-2, 7.990e+2
-0.090, 1.053e-5, 1.676e-2, 7.996e+2
-0.029, 1.093e-5, 1.921e-2, 8.002e+2
-0.002, 1.109e-5, 1.676e-2, 8.005e+2