File: data/FL/FL/2023.4.27/10号b-cds（2）.txt
Apr. 27, 2023   13:14:23
Cyclic Voltammetry
File: 10Data Source:  Experiment
Instrument Model:  CHI660E
Ref. Electrode: Ag/AgCl
Header:
Note:

Init E (V) = 0
High E (V) = 0
Low E (V) = -2
Init P/N = N
Scan Rate (V/s) = 0.1
Segment = 40
Sample Interval (V) = 0.001
Quiet Time (sec) = 5
Sensitivity (A/V) = 0.001

Segment 1:

Segment 2:

Segment 3:

Segment 4:

Segment 5:

Segment 6:

Segment 7:

Segment 8:

Segment 9:

Segment 10:

Segment 11:

Segment 12:

Segment 13:

Segment 14:

Segment 15:

Segment 16:

Segment 17:

Segment 18:

Segment 19:

Segment 20:

Segment 21:

Segment 22:

Segment 23:

Segment 24:

Segment 25:

Segment 26:

Segment 27:

Segment 28:

Segment 29:

Segment 30:

Segment 31:

Segment 32:

Segment 33:

Segment 34:

Segment 35:

Segment 36:

Segment 37:

Segment 38:

Segment 39:

Segment 40:

Potential/V, Current/A, Voltage/V, Time/s

0.000, 8.607e-6, 1.567e-2, 1.000e-2
-0.061, 6.843e-6, 1.873e-2, 6.200e-1
-0.122, 5.734e-6, 1.606e-2, 1.230e+0
-0.183, 4.776e-6, 1.949e-2, 1.840e+0
-0.244, 3.928e-6, 1.476e-2, 2.450e+0
-0.305, 3.075e-6, 1.902e-2, 3.060e+0
-0.366, 2.177e-6, 1.453e-2, 3.670e+0
-0.427, 1.250e-6, 1.892e-2, 4.280e+0
-0.488, 1.849e-7, 1.636e-2, 4.890e+0
-0.549, -9.269e-7, 1.877e-2, 5.500e+0
-0.610, -2.155e-6, 1.661e-2, 6.110e+0
-0.671, -3.554e-6, 1.811e-2, 6.720e+0
-0.732, -5.255e-6, 1.476e-2, 7.330e+0
-0.793, -7.316e-6, 1.851e-2, 7.940e+0
-0.854, -9.902e-6, 2.286e-2, 8.550e+0
-0.915, -1.238e-5, 3.745e-2, 9.160e+0
-0.976, -1.531e-5, 5.603e-2, 9.770e+0
-1.037, -1.835e-5, 6.431e-2, 1.038e+1
-1.098, -2.186e-5, 6.858e-2, 1.099e+1
-1.159, -2.561e-5, 8.553e-2, 1.160e+1
-1.220, -2.993e-5, 1.159e-1, 1.221e+1
-1.281, -3.448e-5, 1.615e-1, 1.282e+1
-1.342, -3.903e-5, 1.906e-1, 1.343e+1
-1.403, -4.323e-5, 2.371e-1, 1.404e+1
-1.464, -4.716e-5, 2.608e-1, 1.465e+1
-1.525, -5.047e-5, 2.873e-1, 1.526e+1
-1.586, -5.347e-5, 2.779e-1, 1.587e+1
-1.647, -5.633e-5, 2.754e-1, 1.648e+1
-1.708, -5.939e-5, 2.297e-1, 1.709e+1
-1.769, -6.301e-5, 1.916e-1, 1.770e+1
-1.830, -6.754e-5, 1.654e-1, 1.831e+1
-1.891, -7.347e-5, 1.659e-1, 1.892e+1
-1.952, -8.181e-5, 1.903e-1, 1.953e+1
-1.987, -8.132e-5, 2.057e-1, 2.014e+1
-1.926, -5.522e-5, 1.379e-1, 2.075e+1
-1.865, -4.073e-5, 1.231e-1, 2.136e+1
-1.804, -3.164e-5, 1.111e-1, 2.197e+1
-1.743, -2.534e-5, 9.880e-2, 2.258e+1
-1.682, -2.069e-5, 9.397e-2, 2.319e+1
-1.621, -1.699e-5, 8.073e-2, 2.380e+1
-1.560, -1.384e-5, 8.073e-2, 2.441e+1
-1.499, -1.117e-5, 7.213e-2, 2.502e+1
-1.438, -8.716e-6, 6.175e-2, 2.563e+1
-1.377, -6.507e-6, 5.718e-2, 2.624e+1
-1.316, -4.446e-6, 5.334e-2, 2.685e+1
-1.255, -2.653e-6, 4.892e-2, 2.746e+1
-1.194, -8.616e-7, 4.342e-2, 2.807e+1
-1.133, 6.881e-7, 3.231e-2, 2.868e+1
-1.072, 2.252e-6, 3.246e-2, 2.929e+1
-1.011, 3.511e-6, 2.751e-2, 2.990e+1
-0.950, 4.874e-6, 2.476e-2, 3.051e+1
-0.889, 6.002e-6, 2.204e-2, 3.112e+1
-0.828, 7.051e-6, 1.739e-2, 3.173e+1
-0.767, 7.915e-6, 1.786e-2, 3.234e+1
-0.706, 8.783e-6, 1.522e-2, 3.295e+1
-0.645, 9.437e-6, 1.769e-2, 3.356e+1
-0.584, 1.004e-5, 1.594e-2, 3.417e+1
-0.523, 1.052e-5, 1.854e-2, 3.478e+1
-0.462, 1.098e-5, 1.626e-2, 3.539e+1
-0.401, 1.139e-5, 1.868e-2, 3.600e+1
-0.340, 1.175e-5, 1.565e-2, 3.661e+1
-0.279, 1.201e-5, 1.809e-2, 3.722e+1
-0.218, 1.229e-5, 1.418e-2, 3.783e+1
-0.157, 1.254e-5, 1.933e-2, 3.844e+1
-0.096, 1.272e-5, 1.609e-2, 3.905e+1
-0.035, 1.299e-5, 2.032e-2, 3.966e+1
-0.026, 1.096e-5, 1.550e-2, 4.027e+1
-0.087, 8.657e-6, 1.813e-2, 4.088e+1
-0.148, 7.087e-6, 1.522e-2, 4.149e+1
-0.209, 5.910e-6, 1.783e-2, 4.210e+1
-0.270, 4.837e-6, 1.573e-2, 4.271e+1
-0.331, 3.830e-6, 1.952e-2, 4.332e+1
-0.392, 2.812e-6, 1.575e-2, 4.393e+1
-0.453, 1.835e-6, 1.766e-2, 4.454e+1
-0.514, 6.807e-7, 1.573e-2, 4.515e+1
-0.575, -3.086e-7, 1.757e-2, 4.576e+1
-0.636, -1.602e-6, 1.728e-2, 4.637e+1
-0.697, -2.849e-6, 1.856e-2, 4.698e+1
-0.758, -4.486e-6, 1.680e-2, 4.759e+1
-0.819, -6.318e-6, 1.940e-2, 4.820e+1
-0.880, -8.519e-6, 2.568e-2, 4.881e+1
-0.941, -1.081e-5, 3.731e-2, 4.942e+1
-1.002, -1.345e-5, 4.543e-2, 5.003e+1
-1.063, -1.638e-5, 5.729e-2, 5.064e+1
-1.124, -1.964e-5, 6.706e-2, 5.125e+1
-1.185, -2.340e-5, 8.639e-2, 5.186e+1
-1.246, -2.753e-5, 1.181e-1, 5.247e+1
-1.307, -3.192e-5, 1.418e-1, 5.308e+1
-1.368, -3.640e-5, 1.854e-1, 5.369e+1
-1.429, -4.063e-5, 2.198e-1, 5.430e+1
-1.490, -4.457e-5, 2.468e-1, 5.491e+1
-1.551, -4.807e-5, 2.702e-1, 5.552e+1
-1.612, -5.123e-5, 2.679e-1, 5.613e+1
-1.673, -5.423e-5, 2.539e-1, 5.674e+1
-1.734, -5.743e-5, 2.179e-1, 5.735e+1
-1.795, -6.130e-5, 1.828e-1, 5.796e+1
-1.856, -6.605e-5, 1.667e-1, 5.857e+1
-1.917, -7.253e-5, 1.648e-1, 5.918e+1
-1.978, -8.205e-5, 1.958e-1, 5.979e+1
-1.961, -6.491e-5, 1.571e-1, 6.040e+1
-1.900, -4.614e-5, 1.252e-1, 6.101e+1
-1.839, -3.496e-5, 1.052e-1, 6.162e+1
-1.778, -2.753e-5, 9.507e-2, 6.223e+1
-1.717, -2.233e-5, 9.294e-2, 6.284e+1
-1.656, -1.816e-5, 8.685e-2, 6.345e+1
-1.595, -1.485e-5, 7.491e-2, 6.406e+1
-1.534, -1.194e-5, 7.281e-2, 6.467e+1
-1.473, -9.571e-6, 6.607e-2, 6.528e+1
-1.412, -7.150e-6, 5.767e-2, 6.589e+1
-1.351, -5.117e-6, 5.040e-2, 6.650e+1
-1.290, -3.174e-6, 4.693e-2, 6.711e+1
-1.229, -1.553e-6, 4.115e-2, 6.772e+1
-1.168, 1.246e-7, 3.749e-2, 6.833e+1
-1.107, 1.593e-6, 3.450e-2, 6.894e+1
-1.046, 3.036e-6, 2.730e-2, 6.955e+1
-0.985, 4.324e-6, 2.530e-2, 7.016e+1
-0.924, 5.500e-6, 1.908e-2, 7.077e+1
-0.863, 6.629e-6, 2.026e-2, 7.138e+1
-0.802, 7.587e-6, 1.688e-2, 7.199e+1
-0.741, 8.463e-6, 1.864e-2, 7.260e+1
-0.680, 9.234e-6, 1.540e-2, 7.321e+1
-0.619, 9.906e-6, 1.867e-2, 7.382e+1
-0.558, 1.046e-5, 1.557e-2, 7.443e+1
-0.497, 1.091e-5, 1.966e-2, 7.504e+1
-0.436, 1.132e-5, 1.612e-2, 7.565e+1
-0.375, 1.170e-5, 1.839e-2, 7.626e+1
-0.314, 1.201e-5, 1.504e-2, 7.687e+1
-0.253, 1.233e-5, 1.777e-2, 7.748e+1
-0.192, 1.257e-5, 1.575e-2, 7.809e+1
-0.131, 1.285e-5, 1.891e-2, 7.870e+1
-0.070, 1.301e-5, 1.655e-2, 7.931e+1
-0.009, 1.328e-5, 1.819e-2, 7.992e+1
-0.052, 1.003e-5, 1.460e-2, 8.053e+1
-0.113, 8.197e-6, 1.830e-2, 8.114e+1
-0.174, 6.759e-6, 1.659e-2, 8.175e+1
-0.235, 5.652e-6, 1.927e-2, 8.236e+1
-0.296, 4.573e-6, 1.559e-2, 8.297e+1
-0.357, 3.622e-6, 1.724e-2, 8.358e+1
-0.418, 2.552e-6, 1.600e-2, 8.419e+1
-0.479, 1.571e-6, 1.779e-2, 8.480e+1
-0.540, 4.586e-7, 1.614e-2, 8.541e+1
-0.601, -5.546e-7, 1.880e-2, 8.602e+1
-0.662, -1.815e-6, 1.433e-2, 8.663e+1
-0.723, -3.116e-6, 1.819e-2, 8.724e+1
-0.784, -4.736e-6, 1.672e-2, 8.785e+1
-0.845, -6.631e-6, 2.258e-2, 8.846e+1
-0.906, -8.751e-6, 2.842e-2, 8.907e+1
-0.967, -1.096e-5, 3.890e-2, 8.968e+1
-1.028, -1.366e-5, 4.666e-2, 9.029e+1
-1.089, -1.651e-5, 5.417e-2, 9.090e+1
-1.150, -1.986e-5, 7.004e-2, 9.151e+1
-1.211, -2.353e-5, 8.650e-2, 9.212e+1
-1.272, -2.773e-5, 1.061e-1, 9.273e+1
-1.333, -3.205e-5, 1.470e-1, 9.334e+1
-1.394, -3.650e-5, 1.820e-1, 9.395e+1
-1.455, -4.065e-5, 2.261e-1, 9.456e+1
-1.516, -4.457e-5, 2.597e-1, 9.517e+1
-1.577, -4.804e-5, 2.638e-1, 9.578e+1
-1.638, -5.123e-5, 2.671e-1, 9.639e+1
-1.699, -5.425e-5, 2.455e-1, 9.700e+1
-1.760, -5.764e-5, 2.076e-1, 9.761e+1
-1.821, -6.163e-5, 1.704e-1, 9.822e+1
-1.882, -6.671e-5, 1.598e-1, 9.883e+1
-1.943, -7.392e-5, 1.692e-1, 9.944e+1
-1.996, -8.048e-5, 2.136e-1, 1.001e+2
-1.935, -5.420e-5, 1.292e-1, 1.007e+2
-1.874, -3.988e-5, 1.124e-1, 1.013e+2
-1.813, -3.086e-5, 9.648e-2, 1.019e+2
-1.752, -2.467e-5, 9.060e-2, 1.025e+2
-1.691, -2.003e-5, 8.122e-2, 1.031e+2
-1.630, -1.630e-5, 7.909e-2, 1.037e+2
-1.569, -1.326e-5, 7.193e-2, 1.043e+2
-1.508, -1.058e-5, 6.652e-2, 1.049e+2
-1.447, -8.260e-6, 5.950e-2, 1.055e+2
-1.386, -6.060e-6, 5.366e-2, 1.062e+2
-1.325, -4.109e-6, 4.820e-2, 1.068e+2
-1.264, -2.279e-6, 4.624e-2, 1.074e+2
-1.203, -6.340e-7, 3.675e-2, 1.080e+2
-1.142, 9.441e-7, 3.235e-2, 1.086e+2
-1.081, 2.358e-6, 2.871e-2, 1.092e+2
-1.020, 3.702e-6, 3.114e-2, 1.098e+2
-0.959, 4.887e-6, 2.224e-2, 1.104e+2
-0.898, 6.127e-6, 2.205e-2, 1.110e+2
-0.837, 7.062e-6, 1.669e-2, 1.116e+2
-0.776, 8.070e-6, 1.724e-2, 1.123e+2
-0.715, 8.832e-6, 1.640e-2, 1.129e+2
-0.654, 9.641e-6, 1.814e-2, 1.135e+2
-0.593, 1.016e-5, 1.687e-2, 1.141e+2
-0.532, 1.074e-5, 1.804e-2, 1.147e+2
-0.471, 1.116e-5, 1.802e-2, 1.153e+2
-0.410, 1.158e-5, 1.692e-2, 1.159e+2
-0.349, 1.188e-5, 2.330e-2, 1.165e+2
-0.288, 1.227e-5, 1.839e-2, 1.171e+2
-0.227, 1.247e-5, 1.826e-2, 1.177e+2
-0.166, 1.276e-5, 1.609e-2, 1.184e+2
-0.105, 1.303e-5, 1.811e-2, 1.190e+2
-0.044, 1.323e-5, 1.595e-2, 1.196e+2
-0.017, 1.184e-5, 1.842e-2, 1.202e+2
-0.078, 9.242e-6, 1.579e-2, 1.208e+2
-0.139, 7.688e-6, 1.871e-2, 1.214e+2
-0.200, 6.390e-6, 1.484e-2, 1.220e+2
-0.261, 5.299e-6, 1.776e-2, 1.226e+2
-0.322, 4.256e-6, 1.485e-2, 1.232e+2
-0.383, 3.302e-6, 1.928e-2, 1.238e+2
-0.444, 2.251e-6, 1.480e-2, 1.245e+2
-0.505, 1.258e-6, 1.930e-2, 1.251e+2
-0.566, 1.959e-7, 1.586e-2, 1.257e+2
-0.627, -8.930e-7, 1.960e-2, 1.263e+2
-0.688, -2.126e-6, 1.612e-2, 1.269e+2
-0.749, -3.443e-6, 1.882e-2, 1.275e+2
-0.810, -5.160e-6, 1.606e-2, 1.281e+2
-0.871, -7.006e-6, 2.343e-2, 1.287e+2
-0.932, -9.169e-6, 2.949e-2, 1.293e+2
-0.993, -1.137e-5, 4.439e-2, 1.299e+2
-1.054, -1.404e-5, 4.675e-2, 1.306e+2
-1.115, -1.698e-5, 5.394e-2, 1.312e+2
-1.176, -2.036e-5, 6.875e-2, 1.318e+2
-1.237, -2.414e-5, 9.082e-2, 1.324e+2
-1.298, -2.829e-5, 1.183e-1, 1.330e+2
-1.359, -3.260e-5, 1.492e-1, 1.336e+2
-1.420, -3.696e-5, 1.877e-1, 1.342e+2
-1.481, -4.102e-5, 2.250e-1, 1.348e+2
-1.542, -4.487e-5, 2.521e-1, 1.354e+2
-1.603, -4.830e-5, 2.623e-1, 1.360e+2
-1.664, -5.147e-5, 2.468e-1, 1.367e+2
-1.725, -5.463e-5, 2.349e-1, 1.373e+2
-1.786, -5.815e-5, 1.892e-1, 1.379e+2
-1.847, -6.243e-5, 1.655e-1, 1.385e+2
-1.908, -6.801e-5, 1.596e-1, 1.391e+2
-1.969, -7.617e-5, 1.786e-1, 1.397e+2
-1.970, -6.530e-5, 1.558e-1, 1.403e+2
-1.909, -4.639e-5, 1.179e-1, 1.409e+2
-1.848, -3.499e-5, 1.044e-1, 1.415e+2
-1.787, -2.759e-5, 9.185e-2, 1.421e+2
-1.726, -2.226e-5, 8.640e-2, 1.428e+2
-1.665, -1.816e-5, 7.598e-2, 1.434e+2
-1.604, -1.468e-5, 6.912e-2, 1.440e+2
-1.543, -1.189e-5, 6.744e-2, 1.446e+2
-1.482, -9.421e-6, 6.064e-2, 1.452e+2
-1.421, -7.186e-6, 5.439e-2, 1.458e+2
-1.360, -5.083e-6, 5.000e-2, 1.464e+2
-1.299, -3.239e-6, 4.158e-2, 1.470e+2
-1.238, -1.506e-6, 3.742e-2, 1.476e+2
-1.177, 1.098e-7, 3.382e-2, 1.482e+2
-1.116, 1.609e-6, 3.015e-2, 1.488e+2
-1.055, 2.950e-6, 2.380e-2, 1.495e+2
-0.994, 4.269e-6, 2.500e-2, 1.501e+2
-0.933, 5.416e-6, 1.933e-2, 1.507e+2
-0.872, 6.527e-6, 2.263e-2, 1.513e+2
-0.811, 7.506e-6, 1.521e-2, 1.519e+2
-0.750, 8.410e-6, 1.869e-2, 1.525e+2
-0.689, 9.193e-6, 1.411e-2, 1.531e+2
-0.628, 9.884e-6, 1.816e-2, 1.537e+2
-0.567, 1.044e-5, 1.699e-2, 1.543e+2
-0.506, 1.095e-5, 1.851e-2, 1.549e+2
-0.445, 1.136e-5, 1.504e-2, 1.556e+2
-0.384, 1.178e-5, 1.755e-2, 1.562e+2
-0.323, 1.212e-5, 1.566e-2, 1.568e+2
-0.262, 1.241e-5, 1.824e-2, 1.574e+2
-0.201, 1.269e-5, 1.612e-2, 1.580e+2
-0.140, 1.295e-5, 1.702e-2, 1.586e+2
-0.079, 1.317e-5, 1.579e-2, 1.592e+2
-0.018, 1.341e-5, 1.744e-2, 1.598e+2
-0.043, 1.064e-5, 1.765e-2, 1.604e+2
-0.104, 8.646e-6, 1.785e-2, 1.610e+2
-0.165, 7.226e-6, 1.646e-2, 1.617e+2
-0.226, 5.959e-6, 1.725e-2, 1.623e+2
-0.287, 4.979e-6, 1.773e-2, 1.629e+2
-0.348, 3.886e-6, 1.706e-2, 1.635e+2
-0.409, 2.940e-6, 1.754e-2, 1.641e+2
-0.470, 1.869e-6, 1.580e-2, 1.647e+2
-0.531, 9.176e-7, 1.710e-2, 1.653e+2
-0.592, -1.646e-7, 1.606e-2, 1.659e+2
-0.653, -1.222e-6, 1.822e-2, 1.665e+2
-0.714, -2.485e-6, 1.584e-2, 1.671e+2
-0.775, -3.892e-6, 1.809e-2, 1.677e+2
-0.836, -5.639e-6, 1.850e-2, 1.684e+2
-0.897, -7.442e-6, 2.584e-2, 1.690e+2
-0.958, -9.640e-6, 3.176e-2, 1.696e+2
-1.019, -1.186e-5, 4.254e-2, 1.702e+2
-1.080, -1.461e-5, 4.558e-2, 1.708e+2
-1.141, -1.756e-5, 5.672e-2, 1.714e+2
-1.202, -2.108e-5, 6.535e-2, 1.720e+2
-1.263, -2.491e-5, 9.276e-2, 1.726e+2
-1.324, -2.910e-5, 1.222e-1, 1.732e+2
-1.385, -3.339e-5, 1.516e-1, 1.738e+2
-1.446, -3.768e-5, 1.915e-1, 1.745e+2
-1.507, -4.162e-5, 2.295e-1, 1.751e+2
-1.568, -4.544e-5, 2.312e-1, 1.757e+2
-1.629, -4.876e-5, 2.474e-1, 1.763e+2
-1.690, -5.203e-5, 2.279e-1, 1.769e+2
-1.751, -5.520e-5, 2.017e-1, 1.775e+2
-1.812, -5.902e-5, 1.712e-1, 1.781e+2
-1.873, -6.353e-5, 1.616e-1, 1.787e+2
-1.934, -6.977e-5, 1.599e-1, 1.793e+2
-1.995, -7.901e-5, 1.922e-1, 1.799e+2
-1.944, -5.495e-5, 1.312e-1, 1.806e+2
-1.883, -4.026e-5, 1.112e-1, 1.812e+2
-1.822, -3.116e-5, 9.457e-2, 1.818e+2
-1.761, -2.482e-5, 8.283e-2, 1.824e+2
-1.700, -2.018e-5, 8.030e-2, 1.830e+2
-1.639, -1.641e-5, 7.399e-2, 1.836e+2
-1.578, -1.334e-5, 6.745e-2, 1.842e+2
-1.517, -1.075e-5, 6.227e-2, 1.848e+2
-1.456, -8.408e-6, 5.468e-2, 1.854e+2
-1.395, -6.313e-6, 4.993e-2, 1.860e+2
-1.334, -4.399e-6, 4.752e-2, 1.866e+2
-1.273, -2.538e-6, 4.064e-2, 1.873e+2
-1.212, -9.342e-7, 3.722e-2, 1.879e+2
-1.151, 6.574e-7, 2.872e-2, 1.885e+2
-1.090, 2.120e-6, 2.970e-2, 1.891e+2
-1.029, 3.420e-6, 2.512e-2, 1.897e+2
-0.968, 4.711e-6, 2.250e-2, 1.903e+2
-0.907, 5.834e-6, 1.860e-2, 1.909e+2
-0.846, 6.890e-6, 1.861e-2, 1.915e+2
-0.785, 7.809e-6, 1.592e-2, 1.921e+2
-0.724, 8.718e-6, 1.901e-2, 1.927e+2
-0.663, 9.448e-6, 1.583e-2, 1.934e+2
-0.602, 1.013e-5, 1.804e-2, 1.940e+2
-0.541, 1.063e-5, 1.497e-2, 1.946e+2
-0.480, 1.116e-5, 1.832e-2, 1.952e+2
-0.419, 1.153e-5, 1.713e-2, 1.958e+2
-0.358, 1.199e-5, 1.711e-2, 1.964e+2
-0.297, 1.224e-5, 1.570e-2, 1.970e+2
-0.236, 1.263e-5, 1.757e-2, 1.976e+2
-0.175, 1.279e-5, 1.732e-2, 1.982e+2
-0.114, 1.309e-5, 1.709e-2, 1.988e+2
-0.053, 1.327e-5, 1.619e-2, 1.994e+2
-0.008, 1.264e-5, 1.672e-2, 2.001e+2
-0.069, 9.699e-6, 1.682e-2, 2.007e+2
-0.130, 8.027e-6, 1.740e-2, 2.013e+2
-0.191, 6.733e-6, 1.684e-2, 2.019e+2
-0.252, 5.619e-6, 1.599e-2, 2.025e+2
-0.313, 4.544e-6, 1.673e-2, 2.031e+2
-0.374, 3.572e-6, 1.739e-2, 2.037e+2
-0.435, 2.514e-6, 1.826e-2, 2.043e+2
-0.496, 1.540e-6, 1.722e-2, 2.049e+2
-0.557, 4.703e-7, 1.604e-2, 2.055e+2
-0.618, -4.728e-7, 1.713e-2, 2.062e+2
-0.679, -1.706e-6, 1.740e-2, 2.068e+2
-0.740, -2.867e-6, 1.715e-2, 2.074e+2
-0.801, -4.503e-6, 1.655e-2, 2.080e+2
-0.862, -6.114e-6, 2.003e-2, 2.086e+2
-0.923, -8.118e-6, 2.567e-2, 2.092e+2
-0.984, -1.019e-5, 3.791e-2, 2.098e+2
-1.045, -1.265e-5, 4.106e-2, 2.104e+2
-1.106, -1.536e-5, 4.825e-2, 2.110e+2
-1.167, -1.856e-5, 5.747e-2, 2.116e+2
-1.228, -2.206e-5, 7.845e-2, 2.123e+2
-1.289, -2.607e-5, 9.916e-2, 2.129e+2
-1.350, -3.026e-5, 1.295e-1, 2.135e+2
-1.411, -3.455e-5, 1.609e-1, 2.141e+2
-1.472, -3.870e-5, 1.951e-1, 2.147e+2
-1.533, -4.276e-5, 2.295e-1, 2.153e+2
-1.594, -4.636e-5, 2.398e-1, 2.159e+2
-1.655, -4.972e-5, 2.345e-1, 2.165e+2
-1.716, -5.293e-5, 2.247e-1, 2.171e+2
-1.777, -5.631e-5, 1.810e-1, 2.177e+2
-1.838, -6.021e-5, 1.639e-1, 2.183e+2
-1.899, -6.518e-5, 1.456e-1, 2.190e+2
-1.960, -7.227e-5, 1.599e-1, 2.196e+2
-1.979, -6.691e-5, 1.466e-1, 2.202e+2
-1.918, -4.730e-5, 1.126e-1, 2.208e+2
-1.857, -3.566e-5, 9.487e-2, 2.214e+2
-1.796, -2.805e-5, 8.934e-2, 2.220e+2
-1.735, -2.261e-5, 8.305e-2, 2.226e+2
-1.674, -1.834e-5, 7.206e-2, 2.232e+2
-1.613, -1.493e-5, 6.613e-2, 2.238e+2
-1.552, -1.209e-5, 7.027e-2, 2.244e+2
-1.491, -9.596e-6, 5.645e-2, 2.251e+2
-1.430, -7.357e-6, 5.154e-2, 2.257e+2
-1.369, -5.238e-6, 4.750e-2, 2.263e+2
-1.308, -3.500e-6, 4.216e-2, 2.269e+2
-1.247, -1.729e-6, 3.546e-2, 2.275e+2
-1.186, -1.775e-7, 3.134e-2, 2.281e+2
-1.125, 1.367e-6, 3.276e-2, 2.287e+2
-1.064, 2.659e-6, 2.668e-2, 2.293e+2
-1.003, 4.050e-6, 2.290e-2, 2.299e+2
-0.942, 5.145e-6, 1.894e-2, 2.305e+2
-0.881, 6.281e-6, 1.987e-2, 2.312e+2
-0.820, 7.251e-6, 1.657e-2, 2.318e+2
-0.759, 8.193e-6, 1.760e-2, 2.324e+2
-0.698, 9.004e-6, 1.440e-2, 2.330e+2
-0.637, 9.715e-6, 1.856e-2, 2.336e+2
-0.576, 1.032e-5, 1.655e-2, 2.342e+2
-0.515, 1.088e-5, 1.904e-2, 2.348e+2
-0.454, 1.132e-5, 1.448e-2, 2.354e+2
-0.393, 1.174e-5, 1.781e-2, 2.360e+2
-0.332, 1.208e-5, 1.621e-2, 2.366e+2
-0.271, 1.241e-5, 1.913e-2, 2.372e+2
-0.210, 1.272e-5, 1.556e-2, 2.379e+2
-0.149, 1.292e-5, 1.725e-2, 2.385e+2
-0.088, 1.321e-5, 1.525e-2, 2.391e+2
-0.027, 1.344e-5, 1.771e-2, 2.397e+2
-0.034, 1.114e-5, 1.587e-2, 2.403e+2
-0.095, 8.967e-6, 1.677e-2, 2.409e+2
-0.156, 7.510e-6, 1.680e-2, 2.415e+2
-0.217, 6.293e-6, 1.754e-2, 2.421e+2
-0.278, 5.204e-6, 1.784e-2, 2.427e+2
-0.339, 4.153e-6, 1.609e-2, 2.433e+2
-0.400, 3.225e-6, 1.670e-2, 2.440e+2
-0.461, 2.129e-6, 1.709e-2, 2.446e+2
-0.522, 1.188e-6, 1.786e-2, 2.452e+2
-0.583, 1.387e-7, 1.668e-2, 2.458e+2
-0.644, -8.783e-7, 1.751e-2, 2.464e+2
-0.705, -2.080e-6, 1.531e-2, 2.470e+2
-0.766, -3.344e-6, 1.906e-2, 2.476e+2
-0.827, -4.935e-6, 1.754e-2, 2.482e+2
-0.888, -6.590e-6, 2.351e-2, 2.488e+2
-0.949, -8.606e-6, 2.931e-2, 2.494e+2
-1.010, -1.071e-5, 3.850e-2, 2.501e+2
-1.071, -1.320e-5, 3.894e-2, 2.507e+2
-1.132, -1.602e-5, 4.779e-2, 2.513e+2
-1.193, -1.927e-5, 6.055e-2, 2.519e+2
-1.254, -2.284e-5, 8.005e-2, 2.525e+2
-1.315, -2.688e-5, 1.078e-1, 2.531e+2
-1.376, -3.104e-5, 1.296e-1, 2.537e+2
-1.437, -3.527e-5, 1.649e-1, 2.543e+2
-1.498, -3.936e-5, 1.935e-1, 2.549e+2
-1.559, -4.325e-5, 2.244e-1, 2.555e+2
-1.620, -4.682e-5, 2.349e-1, 2.561e+2
-1.681, -5.013e-5, 2.248e-1, 2.568e+2
-1.742, -5.340e-5, 1.977e-1, 2.574e+2
-1.803, -5.701e-5, 1.641e-1, 2.580e+2
-1.864, -6.123e-5, 1.634e-1, 2.586e+2
-1.925, -6.678e-5, 1.473e-1, 2.592e+2
-1.986, -7.482e-5, 1.708e-1, 2.598e+2
-1.953, -5.625e-5, 1.196e-1, 2.604e+2
-1.892, -4.110e-5, 1.068e-1, 2.610e+2
-1.831, -3.176e-5, 8.855e-2, 2.616e+2
-1.770, -2.526e-5, 7.446e-2, 2.623e+2
-1.709, -2.050e-5, 7.457e-2, 2.629e+2
-1.648, -1.666e-5, 7.092e-2, 2.635e+2
-1.587, -1.360e-5, 6.572e-2, 2.641e+2
-1.526, -1.083e-5, 5.778e-2, 2.647e+2
-1.465, -8.581e-6, 5.109e-2, 2.653e+2
-1.404, -6.344e-6, 4.897e-2, 2.659e+2
-1.343, -4.483e-6, 4.103e-2, 2.665e+2
-1.282, -2.660e-6, 3.920e-2, 2.671e+2
-1.221, -1.098e-6, 3.513e-2, 2.678e+2
-1.160, 4.593e-7, 3.127e-2, 2.684e+2
-1.099, 1.846e-6, 2.611e-2, 2.690e+2
-1.038, 3.254e-6, 2.446e-2, 2.696e+2
-0.977, 4.414e-6, 2.264e-2, 2.702e+2
-0.916, 5.633e-6, 1.882e-2, 2.708e+2
-0.855, 6.606e-6, 1.780e-2, 2.714e+2
-0.794, 7.625e-6, 1.794e-2, 2.720e+2
-0.733, 8.479e-6, 1.740e-2, 2.726e+2
-0.672, 9.328e-6, 1.568e-2, 2.732e+2
-0.611, 9.944e-6, 1.816e-2, 2.739e+2
-0.550, 1.054e-5, 1.683e-2, 2.745e+2
-0.489, 1.106e-5, 1.852e-2, 2.751e+2
-0.428, 1.150e-5, 1.381e-2, 2.757e+2
-0.367, 1.189e-5, 1.828e-2, 2.763e+2
-0.306, 1.227e-5, 1.605e-2, 2.769e+2
-0.245, 1.258e-5, 2.104e-2, 2.775e+2
-0.184, 1.283e-5, 1.560e-2, 2.781e+2
-0.123, 1.310e-5, 1.755e-2, 2.787e+2
-0.062, 1.331e-5, 1.580e-2, 2.794e+2
-0.001, 1.363e-5, 1.878e-2, 2.800e+2
-0.060, 1.014e-5, 1.628e-2, 2.806e+2
-0.121, 8.392e-6, 1.784e-2, 2.812e+2
-0.182, 6.968e-6, 1.559e-2, 2.818e+2
-0.243, 5.869e-6, 1.841e-2, 2.824e+2
-0.304, 4.797e-6, 1.546e-2, 2.830e+2
-0.365, 3.777e-6, 1.759e-2, 2.836e+2
-0.426, 2.725e-6, 1.658e-2, 2.842e+2
-0.487, 1.805e-6, 1.774e-2, 2.848e+2
-0.548, 7.503e-7, 1.637e-2, 2.855e+2
-0.609, -1.978e-7, 1.614e-2, 2.861e+2
-0.670, -1.293e-6, 1.637e-2, 2.867e+2
-0.731, -2.429e-6, 1.738e-2, 2.873e+2
-0.792, -3.852e-6, 1.770e-2, 2.879e+2
-0.853, -5.381e-6, 1.849e-2, 2.885e+2
-0.914, -7.152e-6, 2.339e-2, 2.891e+2
-0.975, -9.165e-6, 3.110e-2, 2.897e+2
-1.036, -1.138e-5, 3.754e-2, 2.903e+2
-1.097, -1.394e-5, 4.313e-2, 2.910e+2
-1.158, -1.684e-5, 5.136e-2, 2.916e+2
-1.219, -2.016e-5, 6.289e-2, 2.922e+2
-1.280, -2.389e-5, 8.246e-2, 2.928e+2
-1.341, -2.789e-5, 1.126e-1, 2.934e+2
-1.402, -3.205e-5, 1.404e-1, 2.940e+2
-1.463, -3.626e-5, 1.715e-1, 2.946e+2
-1.524, -4.030e-5, 2.078e-1, 2.952e+2
-1.585, -4.411e-5, 2.190e-1, 2.958e+2
-1.646, -4.763e-5, 2.281e-1, 2.964e+2
-1.707, -5.097e-5, 2.107e-1, 2.971e+2
-1.768, -5.426e-5, 1.824e-1, 2.977e+2
-1.829, -5.813e-5, 1.583e-1, 2.983e+2
-1.890, -6.271e-5, 1.530e-1, 2.989e+2
-1.951, -6.899e-5, 1.601e-1, 2.995e+2
-1.988, -6.892e-5, 1.570e-1, 3.001e+2
-1.927, -4.840e-5, 1.018e-1, 3.007e+2
-1.866, -3.629e-5, 9.885e-2, 3.013e+2
-1.805, -2.851e-5, 8.504e-2, 3.019e+2
-1.744, -2.292e-5, 7.357e-2, 3.026e+2
-1.683, -1.867e-5, 6.900e-2, 3.032e+2
-1.622, -1.510e-5, 6.674e-2, 3.038e+2
-1.561, -1.229e-5, 5.897e-2, 3.044e+2
-1.500, -9.803e-6, 5.761e-2, 3.050e+2
-1.439, -7.568e-6, 5.163e-2, 3.056e+2
-1.378, -5.500e-6, 4.510e-2, 3.062e+2
-1.317, -3.727e-6, 4.228e-2, 3.068e+2
-1.256, -2.021e-6, 3.471e-2, 3.074e+2
-1.195, -4.451e-7, 3.259e-2, 3.080e+2
-1.134, 1.019e-6, 2.828e-2, 3.087e+2
-1.073, 2.420e-6, 2.700e-2, 3.093e+2
-1.012, 3.667e-6, 2.141e-2, 3.099e+2
-0.951, 4.876e-6, 2.126e-2, 3.105e+2
-0.890, 5.975e-6, 1.723e-2, 3.111e+2
-0.829, 6.989e-6, 2.008e-2, 3.117e+2
-0.768, 7.908e-6, 1.432e-2, 3.123e+2
-0.707, 8.766e-6, 1.778e-2, 3.129e+2
-0.646, 9.496e-6, 1.592e-2, 3.135e+2
-0.585, 1.023e-5, 1.857e-2, 3.142e+2
-0.524, 1.074e-5, 1.555e-2, 3.148e+2
-0.463, 1.132e-5, 1.783e-2, 3.154e+2
-0.402, 1.166e-5, 1.541e-2, 3.160e+2
-0.341, 1.211e-5, 1.821e-2, 3.166e+2
-0.280, 1.237e-5, 1.623e-2, 3.172e+2
-0.219, 1.277e-5, 1.723e-2, 3.178e+2
-0.158, 1.290e-5, 1.474e-2, 3.184e+2
-0.097, 1.324e-5, 1.823e-2, 3.190e+2
-0.036, 1.345e-5, 1.654e-2, 3.197e+2
-0.025, 1.170e-5, 1.793e-2, 3.203e+2
-0.086, 9.300e-6, 1.634e-2, 3.209e+2
-0.147, 7.833e-6, 1.753e-2, 3.215e+2
-0.208, 6.523e-6, 1.703e-2, 3.221e+2
-0.269, 5.447e-6, 1.664e-2, 3.227e+2
-0.330, 4.351e-6, 1.584e-2, 3.233e+2
-0.391, 3.409e-6, 1.817e-2, 3.239e+2
-0.452, 2.328e-6, 1.635e-2, 3.245e+2
-0.513, 1.429e-6, 1.776e-2, 3.251e+2
-0.574, 3.670e-7, 1.505e-2, 3.258e+2
-0.635, -5.485e-7, 1.704e-2, 3.264e+2
-0.696, -1.723e-6, 1.747e-2, 3.270e+2
-0.757, -2.881e-6, 1.758e-2, 3.276e+2
-0.818, -4.383e-6, 1.637e-2, 3.282e+2
-0.879, -5.888e-6, 2.064e-2, 3.288e+2
-0.940, -7.768e-6, 2.644e-2, 3.294e+2
-1.001, -9.788e-6, 3.622e-2, 3.300e+2
-1.062, -1.210e-5, 3.874e-2, 3.306e+2
-1.123, -1.467e-5, 4.253e-2, 3.313e+2
-1.184, -1.773e-5, 5.104e-2, 3.319e+2
-1.245, -2.113e-5, 6.844e-2, 3.325e+2
-1.306, -2.492e-5, 7.954e-2, 3.331e+2
-1.367, -2.891e-5, 1.102e-1, 3.337e+2
-1.428, -3.317e-5, 1.467e-1, 3.343e+2
-1.489, -3.724e-5, 1.791e-1, 3.349e+2
-1.550, -4.125e-5, 2.012e-1, 3.355e+2
-1.611, -4.493e-5, 2.119e-1, 3.361e+2
-1.672, -4.849e-5, 2.220e-1, 3.367e+2
-1.733, -5.175e-5, 2.053e-1, 3.374e+2
-1.794, -5.529e-5, 1.746e-1, 3.380e+2
-1.855, -5.932e-5, 1.475e-1, 3.386e+2
-1.916, -6.442e-5, 1.441e-1, 3.392e+2
-1.977, -7.153e-5, 1.580e-1, 3.398e+2
-1.962, -5.787e-5, 1.273e-1, 3.404e+2
-1.901, -4.218e-5, 9.662e-2, 3.410e+2
-1.840, -3.246e-5, 8.626e-2, 3.416e+2
-1.779, -2.572e-5, 7.607e-2, 3.422e+2
-1.718, -2.088e-5, 7.050e-2, 3.429e+2
-1.657, -1.701e-5, 6.671e-2, 3.435e+2
-1.596, -1.386e-5, 5.594e-2, 3.441e+2
-1.535, -1.115e-5, 5.762e-2, 3.447e+2
-1.474, -8.820e-6, 4.773e-2, 3.453e+2
-1.413, -6.669e-6, 4.271e-2, 3.459e+2
-1.352, -4.710e-6, 3.790e-2, 3.465e+2
-1.291, -2.951e-6, 4.121e-2, 3.471e+2
-1.230, -1.416e-6, 2.960e-2, 3.477e+2
-1.169, 1.738e-7, 3.082e-2, 3.483e+2
-1.108, 1.602e-6, 2.420e-2, 3.490e+2
-1.047, 2.880e-6, 2.568e-2, 3.496e+2
-0.986, 4.210e-6, 2.003e-2, 3.502e+2
-0.925, 5.264e-6, 1.991e-2, 3.508e+2
-0.864, 6.390e-6, 1.769e-2, 3.514e+2
-0.803, 7.313e-6, 1.737e-2, 3.520e+2
-0.742, 8.272e-6, 1.756e-2, 3.526e+2
-0.681, 9.034e-6, 1.506e-2, 3.532e+2
-0.620, 9.797e-6, 1.745e-2, 3.538e+2
-0.559, 1.038e-5, 1.716e-2, 3.545e+2
-0.498, 1.099e-5, 1.730e-2, 3.551e+2
-0.437, 1.144e-5, 1.561e-2, 3.557e+2
-0.376, 1.188e-5, 1.821e-2, 3.563e+2
-0.315, 1.218e-5, 1.591e-2, 3.569e+2
-0.254, 1.257e-5, 1.905e-2, 3.575e+2
-0.193, 1.284e-5, 1.508e-2, 3.581e+2
-0.132, 1.311e-5, 1.802e-2, 3.587e+2
-0.071, 1.333e-5, 1.508e-2, 3.593e+2
-0.010, 1.360e-5, 1.950e-2, 3.599e+2
-0.051, 1.056e-5, 1.528e-2, 3.606e+2
-0.112, 8.678e-6, 1.783e-2, 3.612e+2
-0.173, 7.247e-6, 1.619e-2, 3.618e+2
-0.234, 6.081e-6, 1.874e-2, 3.624e+2
-0.295, 4.982e-6, 1.593e-2, 3.630e+2
-0.356, 3.976e-6, 1.870e-2, 3.636e+2
-0.417, 2.964e-6, 1.492e-2, 3.642e+2
-0.478, 1.997e-6, 1.849e-2, 3.648e+2
-0.539, 1.006e-6, 1.559e-2, 3.654e+2
-0.600, 8.704e-8, 1.807e-2, 3.661e+2
-0.661, -9.822e-7, 1.701e-2, 3.667e+2
-0.722, -2.123e-6, 1.773e-2, 3.673e+2
-0.783, -3.359e-6, 1.708e-2, 3.679e+2
-0.844, -4.878e-6, 1.790e-2, 3.685e+2
-0.905, -6.438e-6, 2.216e-2, 3.691e+2
-0.966, -8.373e-6, 2.723e-2, 3.697e+2
-1.027, -1.039e-5, 3.228e-2, 3.703e+2
-1.088, -1.284e-5, 3.630e-2, 3.709e+2
-1.149, -1.553e-5, 4.520e-2, 3.716e+2
-1.210, -1.869e-5, 5.657e-2, 3.722e+2
-1.271, -2.215e-5, 7.269e-2, 3.728e+2
-1.332, -2.603e-5, 8.887e-2, 3.734e+2
-1.393, -3.004e-5, 1.177e-1, 3.740e+2
-1.454, -3.421e-5, 1.476e-1, 3.746e+2
-1.515, -3.831e-5, 1.835e-1, 3.752e+2
-1.576, -4.221e-5, 1.982e-1, 3.758e+2
-1.637, -4.590e-5, 2.157e-1, 3.764e+2
-1.698, -4.936e-5, 2.041e-1, 3.770e+2
-1.759, -5.280e-5, 1.854e-1, 3.777e+2
-1.820, -5.665e-5, 1.628e-1, 3.783e+2
-1.881, -6.089e-5, 1.454e-1, 3.789e+2
-1.942, -6.654e-5, 1.524e-1, 3.795e+2
-1.997, -7.207e-5, 1.559e-1, 3.801e+2
-1.936, -4.976e-5, 1.101e-1, 3.807e+2
-1.875, -3.736e-5, 9.055e-2, 3.813e+2
-1.814, -2.915e-5, 7.448e-2, 3.819e+2
-1.753, -2.348e-5, 7.952e-2, 3.825e+2
-1.692, -1.904e-5, 6.230e-2, 3.832e+2
-1.631, -1.554e-5, 5.699e-2, 3.838e+2
-1.570, -1.260e-5, 5.236e-2, 3.844e+2
-1.509, -1.016e-5, 5.278e-2, 3.850e+2
-1.448, -7.865e-6, 4.150e-2, 3.856e+2
-1.387, -5.853e-6, 4.239e-2, 3.862e+2
-1.326, -3.988e-6, 3.849e-2, 3.868e+2
-1.265, -2.339e-6, 3.583e-2, 3.874e+2
-1.204, -7.343e-7, 2.985e-2, 3.880e+2
-1.143, 6.617e-7, 2.327e-2, 3.886e+2
-1.082, 2.117e-6, 2.296e-2, 3.893e+2
-1.021, 3.321e-6, 2.010e-2, 3.899e+2
-0.960, 4.570e-6, 2.233e-2, 3.905e+2
-0.899, 5.660e-6, 1.607e-2, 3.911e+2
-0.838, 6.766e-6, 1.927e-2, 3.917e+2
-0.777, 7.670e-6, 1.613e-2, 3.923e+2
-0.716, 8.562e-6, 1.858e-2, 3.929e+2
-0.655, 9.346e-6, 1.436e-2, 3.935e+2
-0.594, 1.004e-5, 1.894e-2, 3.941e+2
-0.533, 1.065e-5, 1.525e-2, 3.948e+2
-0.472, 1.116e-5, 1.744e-2, 3.954e+2
-0.411, 1.163e-5, 1.546e-2, 3.960e+2
-0.350, 1.200e-5, 1.924e-2, 3.966e+2
-0.289, 1.238e-5, 1.648e-2, 3.972e+2
-0.228, 1.270e-5, 1.669e-2, 3.978e+2
-0.167, 1.305e-5, 1.534e-2, 3.984e+2
-0.106, 1.321e-5, 1.786e-2, 3.990e+2
-0.045, 1.349e-5, 1.675e-2, 3.996e+2
-0.016, 1.224e-5, 1.663e-2, 4.002e+2
-0.077, 9.707e-6, 1.574e-2, 4.009e+2
-0.138, 8.026e-6, 1.672e-2, 4.015e+2
-0.199, 6.836e-6, 1.966e-2, 4.021e+2
-0.260, 5.594e-6, 1.583e-2, 4.027e+2
-0.321, 4.655e-6, 1.731e-2, 4.033e+2
-0.382, 3.519e-6, 1.602e-2, 4.039e+2
-0.443, 2.614e-6, 1.801e-2, 4.045e+2
-0.504, 1.559e-6, 1.480e-2, 4.051e+2
-0.565, 6.531e-7, 1.738e-2, 4.057e+2
-0.626, -3.430e-7, 1.693e-2, 4.064e+2
-0.687, -1.378e-6, 1.872e-2, 4.070e+2
-0.748, -2.553e-6, 1.451e-2, 4.076e+2
-0.809, -3.863e-6, 1.734e-2, 4.082e+2
-0.870, -5.422e-6, 1.930e-2, 4.088e+2
-0.931, -7.026e-6, 2.685e-2, 4.094e+2
-0.992, -9.034e-6, 2.694e-2, 4.100e+2
-1.053, -1.113e-5, 3.460e-2, 4.106e+2
-1.114, -1.362e-5, 3.733e-2, 4.112e+2
-1.175, -1.648e-5, 4.923e-2, 4.119e+2
-1.236, -1.970e-5, 6.090e-2, 4.125e+2
-1.297, -2.332e-5, 7.270e-2, 4.131e+2
-1.358, -2.714e-5, 9.602e-2, 4.137e+2
-1.419, -3.130e-5, 1.273e-1, 4.143e+2
-1.480, -3.538e-5, 1.484e-1, 4.149e+2
-1.541, -3.941e-5, 1.722e-1, 4.155e+2
-1.602, -4.329e-5, 1.935e-1, 4.161e+2
-1.663, -4.698e-5, 2.055e-1, 4.167e+2
-1.724, -5.036e-5, 1.906e-1, 4.173e+2
-1.785, -5.393e-5, 1.714e-1, 4.180e+2
-1.846, -5.778e-5, 1.595e-1, 4.186e+2
-1.907, -6.253e-5, 1.385e-1, 4.192e+2
-1.968, -6.890e-5, 1.515e-1, 4.198e+2
-1.971, -5.987e-5, 1.284e-1, 4.204e+2
-1.910, -4.335e-5, 9.473e-2, 4.210e+2
-1.849, -3.335e-5, 8.322e-2, 4.216e+2
-1.788, -2.637e-5, 7.130e-2, 4.222e+2
-1.727, -2.139e-5, 6.463e-2, 4.228e+2
-1.666, -1.738e-5, 6.498e-2, 4.235e+2
-1.605, -1.422e-5, 5.817e-2, 4.241e+2
-1.544, -1.143e-5, 5.034e-2, 4.247e+2
-1.483, -9.232e-6, 4.611e-2, 4.253e+2
-1.422, -6.968e-6, 4.472e-2, 4.259e+2
-1.361, -5.061e-6, 3.941e-2, 4.265e+2
-1.300, -3.294e-6, 3.744e-2, 4.271e+2
-1.239, -1.736e-6, 3.040e-2, 4.277e+2
-1.178, -1.634e-7, 2.816e-2, 4.283e+2
-1.117, 1.227e-6, 2.427e-2, 4.289e+2
-1.056, 2.581e-6, 2.357e-2, 4.296e+2
-0.995, 3.763e-6, 1.756e-2, 4.302e+2
-0.934, 5.026e-6, 2.211e-2, 4.308e+2
-0.873, 6.046e-6, 1.625e-2, 4.314e+2
-0.812, 7.110e-6, 1.775e-2, 4.320e+2
-0.751, 7.993e-6, 1.458e-2, 4.326e+2
-0.690, 8.865e-6, 1.897e-2, 4.332e+2
-0.629, 9.576e-6, 1.631e-2, 4.338e+2
-0.568, 1.026e-5, 1.892e-2, 4.344e+2
-0.507, 1.083e-5, 1.454e-2, 4.351e+2
-0.446, 1.138e-5, 2.034e-2, 4.357e+2
-0.385, 1.178e-5, 1.551e-2, 4.363e+2
-0.324, 1.219e-5, 1.787e-2, 4.369e+2
-0.263, 1.253e-5, 1.498e-2, 4.375e+2
-0.202, 1.289e-5, 1.891e-2, 4.381e+2
-0.141, 1.309e-5, 1.481e-2, 4.387e+2
-0.080, 1.336e-5, 1.837e-2, 4.393e+2
-0.019, 1.362e-5, 1.460e-2, 4.399e+2
-0.042, 1.097e-5, 1.812e-2, 4.405e+2
-0.103, 8.962e-6, 1.561e-2, 4.412e+2
-0.164, 7.512e-6, 1.740e-2, 4.418e+2
-0.225, 6.289e-6, 1.477e-2, 4.424e+2
-0.286, 5.208e-6, 1.910e-2, 4.430e+2
-0.347, 4.212e-6, 1.560e-2, 4.436e+2
-0.408, 3.157e-6, 1.775e-2, 4.442e+2
-0.469, 2.173e-6, 1.476e-2, 4.448e+2
-0.530, 1.199e-6, 1.861e-2, 4.454e+2
-0.591, 2.661e-7, 1.652e-2, 4.460e+2
-0.652, -6.968e-7, 1.740e-2, 4.467e+2
-0.713, -1.834e-6, 1.531e-2, 4.473e+2
-0.774, -3.018e-6, 1.850e-2, 4.479e+2
-0.835, -4.380e-6, 1.698e-2, 4.485e+2
-0.896, -5.943e-6, 2.087e-2, 4.491e+2
-0.957, -7.673e-6, 2.440e-2, 4.497e+2
-1.018, -9.704e-6, 3.049e-2, 4.503e+2
-1.079, -1.188e-5, 3.403e-2, 4.509e+2
-1.140, -1.452e-5, 3.735e-2, 4.515e+2
-1.201, -1.740e-5, 4.652e-2, 4.521e+2
-1.262, -2.077e-5, 6.868e-2, 4.528e+2
-1.323, -2.442e-5, 8.099e-2, 4.534e+2
-1.384, -2.839e-5, 1.004e-1, 4.540e+2
-1.445, -3.244e-5, 1.337e-1, 4.546e+2
-1.506, -3.659e-5, 1.587e-1, 4.552e+2
-1.567, -4.048e-5, 1.723e-1, 4.558e+2
-1.628, -4.441e-5, 1.992e-1, 4.564e+2
-1.689, -4.790e-5, 1.995e-1, 4.570e+2
-1.750, -5.143e-5, 1.924e-1, 4.576e+2
-1.811, -5.498e-5, 1.499e-1, 4.583e+2
-1.872, -5.922e-5, 1.393e-1, 4.589e+2
-1.933, -6.439e-5, 1.390e-1, 4.595e+2
-1.994, -7.175e-5, 1.605e-1, 4.601e+2
-1.945, -5.129e-5, 1.054e-1, 4.607e+2
-1.884, -3.837e-5, 8.640e-2, 4.613e+2
-1.823, -2.989e-5, 7.187e-2, 4.619e+2
-1.762, -2.405e-5, 7.444e-2, 4.625e+2
-1.701, -1.946e-5, 6.736e-2, 4.631e+2
-1.640, -1.596e-5, 5.525e-2, 4.638e+2
-1.579, -1.293e-5, 5.584e-2, 4.644e+2
-1.518, -1.043e-5, 4.655e-2, 4.650e+2
-1.457, -8.136e-6, 4.366e-2, 4.656e+2
-1.396, -6.140e-6, 3.743e-2, 4.662e+2
-1.335, -4.280e-6, 3.871e-2, 4.668e+2
-1.274, -2.686e-6, 3.448e-2, 4.674e+2
-1.213, -1.078e-6, 3.020e-2, 4.680e+2
-1.152, 3.953e-7, 2.371e-2, 4.686e+2
-1.091, 1.770e-6, 2.562e-2, 4.692e+2
-1.030, 2.994e-6, 2.076e-2, 4.699e+2
-0.969, 4.255e-6, 2.251e-2, 4.705e+2
-0.908, 5.368e-6, 1.544e-2, 4.711e+2
-0.847, 6.450e-6, 1.949e-2, 4.717e+2
-0.786, 7.386e-6, 1.509e-2, 4.723e+2
-0.725, 8.375e-6, 1.826e-2, 4.729e+2
-0.664, 9.122e-6, 1.412e-2, 4.735e+2
-0.603, 9.861e-6, 1.863e-2, 4.741e+2
-0.542, 1.049e-5, 1.587e-2, 4.747e+2
-0.481, 1.105e-5, 1.824e-2, 4.754e+2
-0.420, 1.155e-5, 1.457e-2, 4.760e+2
-0.359, 1.194e-5, 1.870e-2, 4.766e+2
-0.298, 1.234e-5, 1.552e-2, 4.772e+2
-0.237, 1.268e-5, 1.808e-2, 4.778e+2
-0.176, 1.295e-5, 1.434e-2, 4.784e+2
-0.115, 1.325e-5, 3.136e-2, 4.790e+2
-0.054, 1.347e-5, 1.653e-2, 4.796e+2
-0.007, 1.290e-5, 2.098e-2, 4.802e+2
-0.068, 1.004e-5, 1.521e-2, 4.808e+2
-0.129, 8.313e-6, 1.819e-2, 4.815e+2
-0.190, 7.010e-6, 1.711e-2, 4.821e+2
-0.251, 5.843e-6, 1.651e-2, 4.827e+2
-0.312, 4.827e-6, 1.609e-2, 4.833e+2
-0.373, 3.756e-6, 1.671e-2, 4.839e+2
-0.434, 2.779e-6, 1.746e-2, 4.845e+2
-0.495, 1.767e-6, 1.648e-2, 4.851e+2
-0.556, 8.690e-7, 1.799e-2, 4.857e+2
-0.617, -1.283e-7, 1.595e-2, 4.863e+2
-0.678, -1.060e-6, 1.778e-2, 4.870e+2
-0.739, -2.258e-6, 1.437e-2, 4.876e+2
-0.800, -3.481e-6, 1.877e-2, 4.882e+2
-0.861, -4.919e-6, 1.747e-2, 4.888e+2
-0.922, -6.482e-6, 2.204e-2, 4.894e+2
-0.983, -8.358e-6, 2.354e-2, 4.900e+2
-1.044, -1.034e-5, 3.304e-2, 4.906e+2
-1.105, -1.270e-5, 3.396e-2, 4.912e+2
-1.166, -1.534e-5, 4.572e-2, 4.918e+2
-1.227, -1.839e-5, 5.325e-2, 4.924e+2
-1.288, -2.188e-5, 6.674e-2, 4.931e+2
-1.349, -2.556e-5, 8.286e-2, 4.937e+2
-1.410, -2.953e-5, 1.065e-1, 4.943e+2
-1.471, -3.367e-5, 1.352e-1, 4.949e+2
-1.532, -3.775e-5, 1.653e-1, 4.955e+2
-1.593, -4.162e-5, 1.873e-1, 4.961e+2
-1.654, -4.544e-5, 1.850e-1, 4.967e+2
-1.715, -4.901e-5, 1.845e-1, 4.973e+2
-1.776, -5.250e-5, 1.652e-1, 4.979e+2
-1.837, -5.631e-5, 1.462e-1, 4.986e+2
-1.898, -6.082e-5, 1.396e-1, 4.992e+2
-1.959, -6.663e-5, 1.391e-1, 4.998e+2
-1.980, -6.218e-5, 1.247e-1, 5.004e+2
-1.919, -4.473e-5, 9.937e-2, 5.010e+2
-1.858, -3.427e-5, 7.434e-2, 5.016e+2
-1.797, -2.706e-5, 6.882e-2, 5.022e+2
-1.736, -2.193e-5, 6.611e-2, 5.028e+2
-1.675, -1.783e-5, 5.875e-2, 5.034e+2
-1.614, -1.457e-5, 5.596e-2, 5.041e+2
-1.553, -1.175e-5, 5.193e-2, 5.047e+2
-1.492, -9.483e-6, 4.928e-2, 5.053e+2
-1.431, -7.241e-6, 4.232e-2, 5.059e+2
-1.370, -5.291e-6, 3.616e-2, 5.065e+2
-1.309, -3.599e-6, 3.533e-2, 5.071e+2
-1.248, -1.994e-6, 2.882e-2, 5.077e+2
-1.187, -4.298e-7, 3.043e-2, 5.083e+2
-1.126, 9.047e-7, 2.067e-2, 5.089e+2
-1.065, 2.272e-6, 2.336e-2, 5.095e+2
-1.004, 3.490e-6, 2.023e-2, 5.102e+2
-0.943, 4.656e-6, 2.080e-2, 5.108e+2
-0.882, 5.763e-6, 1.567e-2, 5.114e+2
-0.821, 6.789e-6, 1.742e-2, 5.120e+2
-0.760, 7.748e-6, 1.679e-2, 5.126e+2
-0.699, 8.582e-6, 1.760e-2, 5.132e+2
-0.638, 9.430e-6, 1.571e-2, 5.138e+2
-0.577, 1.007e-5, 1.987e-2, 5.144e+2
-0.516, 1.073e-5, 1.688e-2, 5.150e+2
-0.455, 1.123e-5, 1.654e-2, 5.157e+2
-0.394, 1.176e-5, 1.624e-2, 5.163e+2
-0.333, 1.206e-5, 1.569e-2, 5.169e+2
-0.272, 1.250e-5, 1.760e-2, 5.175e+2
-0.211, 1.277e-5, 1.524e-2, 5.181e+2
-0.150, 1.310e-5, 1.757e-2, 5.187e+2
-0.089, 1.328e-5, 1.508e-2, 5.193e+2
-0.028, 1.361e-5, 1.799e-2, 5.199e+2
-0.033, 1.140e-5, 1.539e-2, 5.205e+2
-0.094, 9.326e-6, 1.727e-2, 5.211e+2
-0.155, 7.765e-6, 1.605e-2, 5.218e+2
-0.216, 6.530e-6, 1.812e-2, 5.224e+2
-0.277, 5.406e-6, 1.445e-2, 5.230e+2
-0.338, 4.393e-6, 1.802e-2, 5.236e+2
-0.399, 3.334e-6, 1.430e-2, 5.242e+2
-0.460, 2.370e-6, 1.903e-2, 5.248e+2
-0.521, 1.429e-6, 1.516e-2, 5.254e+2
-0.582, 4.519e-7, 1.699e-2, 5.260e+2
-0.643, -4.944e-7, 1.478e-2, 5.266e+2
-0.704, -1.567e-6, 1.875e-2, 5.273e+2
-0.765, -2.690e-6, 1.520e-2, 5.279e+2
-0.826, -4.005e-6, 1.754e-2, 5.285e+2
-0.887, -5.485e-6, 1.913e-2, 5.291e+2
-0.948, -7.123e-6, 2.477e-2, 5.297e+2
-1.009, -8.995e-6, 2.844e-2, 5.303e+2
-1.070, -1.108e-5, 3.191e-2, 5.309e+2
-1.131, -1.352e-5, 3.494e-2, 5.315e+2
-1.192, -1.638e-5, 4.329e-2, 5.321e+2
-1.253, -1.945e-5, 5.782e-2, 5.327e+2
-1.314, -2.309e-5, 7.040e-2, 5.334e+2
-1.375, -2.679e-5, 8.999e-2, 5.340e+2
-1.436, -3.088e-5, 1.148e-1, 5.346e+2
-1.497, -3.487e-5, 1.437e-1, 5.352e+2
-1.558, -3.898e-5, 1.626e-1, 5.358e+2
-1.619, -4.275e-5, 1.699e-1, 5.364e+2
-1.680, -4.658e-5, 1.762e-1, 5.370e+2
-1.741, -5.006e-5, 1.754e-1, 5.376e+2
-1.802, -5.376e-5, 1.554e-1, 5.382e+2
-1.863, -5.775e-5, 1.417e-1, 5.389e+2
-1.924, -6.268e-5, 1.372e-1, 5.395e+2
-1.985, -6.925e-5, 1.530e-1, 5.401e+2
-1.954, -5.317e-5, 1.129e-1, 5.407e+2
-1.893, -3.948e-5, 8.566e-2, 5.413e+2
-1.832, -3.073e-5, 7.097e-2, 5.419e+2
-1.771, -2.460e-5, 6.827e-2, 5.425e+2
-1.710, -1.999e-5, 5.996e-2, 5.431e+2
-1.649, -1.631e-5, 5.737e-2, 5.437e+2
-1.588, -1.330e-5, 4.719e-2, 5.443e+2
-1.527, -1.070e-5, 4.675e-2, 5.450e+2
-1.466, -8.485e-6, 4.171e-2, 5.456e+2
-1.405, -6.386e-6, 3.925e-2, 5.462e+2
-1.344, -4.625e-6, 2.983e-2, 5.468e+2
-1.283, -2.924e-6, 2.964e-2, 5.474e+2
-1.222, -1.370e-6, 2.760e-2, 5.480e+2
-1.161, 1.080e-7, 2.645e-2, 5.486e+2
-1.100, 1.458e-6, 1.948e-2, 5.492e+2
-1.039, 2.754e-6, 2.296e-2, 5.498e+2
-0.978, 3.917e-6, 1.919e-2, 5.505e+2
-0.917, 5.060e-6, 1.905e-2, 5.511e+2
-0.856, 6.156e-6, 1.464e-2, 5.517e+2
-0.795, 7.119e-6, 1.895e-2, 5.523e+2
-0.734, 8.027e-6, 1.589e-2, 5.529e+2
-0.673, 8.919e-6, 1.674e-2, 5.535e+2
-0.612, 9.645e-6, 1.602e-2, 5.541e+2
-0.551, 1.031e-5, 1.855e-2, 5.547e+2
-0.490, 1.092e-5, 1.573e-2, 5.553e+2
-0.429, 1.139e-5, 1.677e-2, 5.560e+2
-0.368, 1.188e-5, 1.674e-2, 5.566e+2
-0.307, 1.224e-5, 1.754e-2, 5.572e+2
-0.246, 1.264e-5, 1.647e-2, 5.578e+2
-0.185, 1.288e-5, 1.563e-2, 5.584e+2
-0.124, 1.325e-5, 1.727e-2, 5.590e+2
-0.063, 1.341e-5, 1.605e-2, 5.596e+2
-0.002, 1.375e-5, 1.696e-2, 5.602e+2
-0.059, 1.038e-5, 1.429e-2, 5.608e+2
-0.120, 8.627e-6, 1.824e-2, 5.614e+2
-0.181, 7.187e-6, 1.604e-2, 5.621e+2
-0.242, 6.095e-6, 1.690e-2, 5.627e+2
-0.303, 4.924e-6, 1.534e-2, 5.633e+2
-0.364, 4.013e-6, 1.833e-2, 5.639e+2
-0.425, 2.932e-6, 1.624e-2, 5.645e+2
-0.486, 1.984e-6, 1.797e-2, 5.651e+2
-0.547, 9.964e-7, 1.500e-2, 5.657e+2
-0.608, 9.504e-8, 1.945e-2, 5.663e+2
-0.669, -8.869e-7, 1.449e-2, 5.669e+2
-0.730, -1.975e-6, 1.912e-2, 5.676e+2
-0.791, -3.142e-6, 1.604e-2, 5.682e+2
-0.852, -4.538e-6, 1.910e-2, 5.688e+2
-0.913, -6.014e-6, 1.767e-2, 5.694e+2
-0.974, -7.712e-6, 2.529e-2, 5.700e+2
-1.035, -9.719e-6, 2.922e-2, 5.706e+2
-1.096, -1.188e-5, 3.549e-2, 5.712e+2
-1.157, -1.438e-5, 3.678e-2, 5.718e+2
-1.218, -1.738e-5, 4.830e-2, 5.724e+2
-1.279, -2.057e-5, 5.820e-2, 5.730e+2
-1.340, -2.423e-5, 7.600e-2, 5.737e+2
-1.401, -2.805e-5, 9.300e-2, 5.743e+2
-1.462, -3.211e-5, 1.257e-1, 5.749e+2
-1.523, -3.615e-5, 1.431e-1, 5.755e+2
-1.584, -4.015e-5, 1.613e-1, 5.761e+2
-1.645, -4.400e-5, 1.804e-1, 5.767e+2
-1.706, -4.772e-5, 1.733e-1, 5.773e+2
-1.767, -5.129e-5, 1.669e-1, 5.779e+2
-1.828, -5.504e-5, 1.420e-1, 5.785e+2
-1.889, -5.933e-5, 1.329e-1, 5.792e+2
-1.950, -6.480e-5, 1.412e-1, 5.798e+2
-1.989, -6.487e-5, 1.404e-1, 5.804e+2
-1.928, -4.624e-5, 9.623e-2, 5.810e+2
-1.867, -3.518e-5, 7.587e-2, 5.816e+2
-1.806, -2.783e-5, 6.924e-2, 5.822e+2
-1.745, -2.248e-5, 6.381e-2, 5.828e+2
-1.684, -1.837e-5, 5.409e-2, 5.834e+2
-1.623, -1.494e-5, 4.981e-2, 5.840e+2
-1.562, -1.219e-5, 4.762e-2, 5.846e+2
-1.501, -9.756e-6, 4.161e-2, 5.853e+2
-1.440, -7.645e-6, 3.921e-2, 5.859e+2
-1.379, -5.593e-6, 3.666e-2, 5.865e+2
-1.318, -3.945e-6, 3.214e-2, 5.871e+2
-1.257, -2.271e-6, 2.982e-2, 5.877e+2
-1.196, -8.500e-7, 2.517e-2, 5.883e+2
-1.135, 6.475e-7, 2.489e-2, 5.889e+2
-1.074, 1.924e-6, 2.105e-2, 5.895e+2
-1.013, 3.203e-6, 2.001e-2, 5.901e+2
-0.952, 4.339e-6, 1.870e-2, 5.908e+2
-0.891, 5.468e-6, 1.918e-2, 5.914e+2
-0.830, 6.514e-6, 1.515e-2, 5.920e+2
-0.769, 7.485e-6, 1.796e-2, 5.926e+2
-0.708, 8.359e-6, 1.573e-2, 5.932e+2
-0.647, 9.208e-6, 1.814e-2, 5.938e+2
-0.586, 9.928e-6, 1.374e-2, 5.944e+2
-0.525, 1.053e-5, 1.786e-2, 5.950e+2
-0.464, 1.112e-5, 1.562e-2, 5.956e+2
-0.403, 1.160e-5, 1.762e-2, 5.963e+2
-0.342, 1.202e-5, 1.483e-2, 5.969e+2
-0.281, 1.241e-5, 1.788e-2, 5.975e+2
-0.220, 1.272e-5, 1.566e-2, 5.981e+2
-0.159, 1.303e-5, 1.930e-2, 5.987e+2
-0.098, 1.335e-5, 1.404e-2, 5.993e+2
-0.037, 1.354e-5, 1.901e-2, 5.999e+2
-0.024, 1.193e-5, 1.540e-2, 6.005e+2
-0.085, 9.581e-6, 1.795e-2, 6.011e+2
-0.146, 7.985e-6, 1.547e-2, 6.017e+2
-0.207, 6.736e-6, 1.722e-2, 6.024e+2
-0.268, 5.626e-6, 1.639e-2, 6.030e+2
-0.329, 4.566e-6, 1.613e-2, 6.036e+2
-0.390, 3.526e-6, 1.642e-2, 6.042e+2
-0.451, 2.520e-6, 1.813e-2, 6.048e+2
-0.512, 1.608e-6, 1.610e-2, 6.054e+2
-0.573, 6.161e-7, 1.563e-2, 6.060e+2
-0.634, -2.556e-7, 1.714e-2, 6.066e+2
-0.695, -1.336e-6, 1.698e-2, 6.072e+2
-0.756, -2.390e-6, 1.770e-2, 6.079e+2
-0.817, -3.688e-6, 1.579e-2, 6.085e+2
-0.878, -5.019e-6, 1.961e-2, 6.091e+2
-0.939, -6.636e-6, 2.044e-2, 6.097e+2
-1.000, -8.311e-6, 2.783e-2, 6.103e+2
-1.061, -1.043e-5, 2.815e-2, 6.109e+2
-1.122, -1.268e-5, 3.210e-2, 6.115e+2
-1.183, -1.539e-5, 3.864e-2, 6.121e+2
-1.244, -1.837e-5, 5.254e-2, 6.127e+2
-1.305, -2.182e-5, 6.326e-2, 6.133e+2
-1.366, -2.538e-5, 8.080e-2, 6.140e+2
-1.427, -2.937e-5, 1.050e-1, 6.146e+2
-1.488, -3.342e-5, 1.260e-1, 6.152e+2
-1.549, -3.748e-5, 1.484e-1, 6.158e+2
-1.610, -4.138e-5, 1.591e-1, 6.164e+2
-1.671, -4.524e-5, 1.709e-1, 6.170e+2
-1.732, -4.891e-5, 1.688e-1, 6.176e+2
-1.793, -5.256e-5, 1.529e-1, 6.182e+2
-1.854, -5.651e-5, 1.358e-1, 6.188e+2
-1.915, -6.115e-5, 1.292e-1, 6.195e+2
-1.976, -6.719e-5, 1.503e-1, 6.201e+2
-1.963, -5.511e-5, 1.113e-1, 6.207e+2
-1.902, -4.073e-5, 8.251e-2, 6.213e+2
-1.841, -3.162e-5, 6.220e-2, 6.219e+2
-1.780, -2.525e-5, 6.407e-2, 6.225e+2
-1.719, -2.053e-5, 5.793e-2, 6.231e+2
-1.658, -1.675e-5, 5.574e-2, 6.237e+2
-1.597, -1.368e-5, 4.519e-2, 6.243e+2
-1.536, -1.107e-5, 4.544e-2, 6.249e+2
-1.475, -8.815e-6, 3.916e-2, 6.256e+2
-1.414, -6.729e-6, 4.154e-2, 6.262e+2
-1.353, -4.841e-6, 2.860e-2, 6.268e+2
-1.292, -3.216e-6, 3.373e-2, 6.274e+2
-1.231, -1.689e-6, 2.892e-2, 6.280e+2
-1.170, -2.323e-7, 2.286e-2, 6.286e+2
-1.109, 1.167e-6, 2.090e-2, 6.292e+2
-1.048, 2.412e-6, 2.300e-2, 6.298e+2
-0.987, 3.650e-6, 1.875e-2, 6.304e+2
-0.926, 4.752e-6, 1.836e-2, 6.311e+2
-0.865, 5.852e-6, 1.509e-2, 6.317e+2
-0.804, 6.903e-6, 1.914e-2, 6.323e+2
-0.743, 7.835e-6, 1.467e-2, 6.329e+2
-0.682, 8.666e-6, 1.755e-2, 6.335e+2
-0.621, 9.478e-6, 1.475e-2, 6.341e+2
-0.560, 1.015e-5, 1.875e-2, 6.347e+2
-0.499, 1.079e-5, 1.464e-2, 6.353e+2
-0.438, 1.132e-5, 1.788e-2, 6.359e+2
-0.377, 1.177e-5, 1.552e-2, 6.365e+2
-0.316, 1.219e-5, 1.787e-2, 6.372e+2
-0.255, 1.252e-5, 1.435e-2, 6.378e+2
-0.194, 1.289e-5, 1.867e-2, 6.384e+2
-0.133, 1.317e-5, 1.554e-2, 6.390e+2
-0.072, 1.347e-5, 1.771e-2, 6.396e+2
-0.011, 1.371e-5, 1.410e-2, 6.402e+2
-0.050, 1.080e-5, 1.943e-2, 6.408e+2
-0.111, 8.895e-6, 1.581e-2, 6.414e+2
-0.172, 7.484e-6, 1.711e-2, 6.420e+2
-0.233, 6.242e-6, 1.485e-2, 6.427e+2
-0.294, 5.155e-6, 1.861e-2, 6.433e+2
-0.355, 4.142e-6, 1.567e-2, 6.439e+2
-0.416, 3.156e-6, 1.785e-2, 6.445e+2
-0.477, 2.110e-6, 1.479e-2, 6.451e+2
-0.538, 1.241e-6, 1.840e-2, 6.457e+2
-0.599, 2.273e-7, 1.505e-2, 6.463e+2
-0.660, -6.149e-7, 1.776e-2, 6.469e+2
-0.721, -1.766e-6, 1.582e-2, 6.475e+2
-0.782, -2.843e-6, 1.799e-2, 6.482e+2
-0.843, -4.197e-6, 1.667e-2, 6.488e+2
-0.904, -5.529e-6, 2.038e-2, 6.494e+2
-0.965, -7.227e-6, 2.272e-2, 6.500e+2
-1.026, -9.079e-6, 3.553e-2, 6.506e+2
-1.087, -1.122e-5, 3.019e-2, 6.512e+2
-1.148, -1.356e-5, 3.632e-2, 6.518e+2
-1.209, -1.639e-5, 4.096e-2, 6.524e+2
-1.270, -1.946e-5, 5.125e-2, 6.530e+2
-1.331, -2.302e-5, 6.893e-2, 6.536e+2
-1.392, -2.667e-5, 8.319e-2, 6.543e+2
-1.453, -3.065e-5, 1.142e-1, 6.549e+2
-1.514, -3.468e-5, 1.236e-1, 6.555e+2
-1.575, -3.872e-5, 1.558e-1, 6.561e+2
-1.636, -4.263e-5, 1.657e-1, 6.567e+2
-1.697, -4.648e-5, 1.720e-1, 6.573e+2
-1.758, -5.012e-5, 1.641e-1, 6.579e+2
-1.819, -5.391e-5, 1.399e-1, 6.585e+2
-1.880, -5.812e-5, 1.372e-1, 6.591e+2
-1.941, -6.320e-5, 1.323e-1, 6.598e+2
-1.998, -6.835e-5, 1.490e-1, 6.604e+2
-1.937, -4.787e-5, 9.388e-2, 6.610e+2
-1.876, -3.633e-5, 7.614e-2, 6.616e+2
-1.815, -2.857e-5, 7.573e-2, 6.622e+2
-1.754, -2.308e-5, 5.645e-2, 6.628e+2
-1.693, -1.877e-5, 5.209e-2, 6.634e+2
-1.632, -1.540e-5, 5.090e-2, 6.640e+2
-1.571, -1.248e-5, 4.984e-2, 6.646e+2
-1.510, -1.009e-5, 4.015e-2, 6.652e+2
-1.449, -7.855e-6, 3.890e-2, 6.659e+2
-1.388, -5.947e-6, 3.690e-2, 6.665e+2
-1.327, -4.127e-6, 3.166e-2, 6.671e+2
-1.266, -2.595e-6, 3.011e-2, 6.677e+2
-1.205, -1.074e-6, 2.547e-2, 6.683e+2
-1.144, 3.018e-7, 2.303e-2, 6.689e+2
-1.083, 1.690e-6, 2.063e-2, 6.695e+2
-1.022, 2.886e-6, 2.082e-2, 6.701e+2
-0.961, 4.063e-6, 1.719e-2, 6.707e+2
-0.900, 5.131e-6, 1.916e-2, 6.714e+2
-0.839, 6.250e-6, 1.483e-2, 6.720e+2
-0.778, 7.252e-6, 1.775e-2, 6.726e+2
-0.717, 8.112e-6, 1.532e-2, 6.732e+2
-0.656, 8.955e-6, 1.760e-2, 6.738e+2
-0.595, 9.746e-6, 1.496e-2, 6.744e+2
-0.534, 1.039e-5, 1.933e-2, 6.750e+2
-0.473, 1.097e-5, 1.529e-2, 6.756e+2
-0.412, 1.150e-5, 1.792e-2, 6.762e+2
-0.351, 1.193e-5, 1.472e-2, 6.768e+2
-0.290, 1.237e-5, 1.899e-2, 6.775e+2
-0.229, 1.266e-5, 1.568e-2, 6.781e+2
-0.168, 1.303e-5, 1.753e-2, 6.787e+2
-0.107, 1.328e-5, 1.656e-2, 6.793e+2
-0.046, 1.358e-5, 1.879e-2, 6.799e+2
-0.015, 1.243e-5, 1.501e-2, 6.805e+2
-0.076, 9.927e-6, 1.738e-2, 6.811e+2
-0.137, 8.245e-6, 1.580e-2, 6.817e+2
-0.198, 6.960e-6, 1.756e-2, 6.823e+2
-0.259, 5.734e-6, 1.482e-2, 6.830e+2
-0.320, 4.731e-6, 1.787e-2, 6.836e+2
-0.381, 3.695e-6, 1.702e-2, 6.842e+2
-0.442, 2.731e-6, 1.615e-2, 6.848e+2
-0.503, 1.701e-6, 1.681e-2, 6.854e+2
-0.564, 8.530e-7, 1.754e-2, 6.860e+2
-0.625, -9.876e-8, 1.678e-2, 6.866e+2
-0.686, -1.062e-6, 1.665e-2, 6.872e+2
-0.747, -2.167e-6, 1.655e-2, 6.878e+2
-0.808, -3.280e-6, 1.689e-2, 6.885e+2
-0.869, -4.722e-6, 1.733e-2, 6.891e+2
-0.930, -6.163e-6, 2.109e-2, 6.897e+2
-0.991, -7.861e-6, 2.421e-2, 6.903e+2
-1.052, -9.772e-6, 2.826e-2, 6.909e+2
-1.113, -1.199e-5, 3.076e-2, 6.915e+2
-1.174, -1.450e-5, 3.215e-2, 6.921e+2
-1.235, -1.741e-5, 4.564e-2, 6.927e+2
-1.296, -2.058e-5, 5.457e-2, 6.933e+2
-1.357, -2.420e-5, 7.134e-2, 6.939e+2
-1.418, -2.797e-5, 8.875e-2, 6.946e+2
-1.479, -3.197e-5, 1.129e-1, 6.952e+2
-1.540, -3.601e-5, 1.353e-1, 6.958e+2
-1.601, -4.002e-5, 1.499e-1, 6.964e+2
-1.662, -4.392e-5, 1.663e-1, 6.970e+2
-1.723, -4.770e-5, 1.578e-1, 6.976e+2
-1.784, -5.143e-5, 1.484e-1, 6.982e+2
-1.845, -5.533e-5, 1.320e-1, 6.988e+2
-1.906, -5.974e-5, 1.270e-1, 6.994e+2
-1.967, -6.544e-5, 1.418e-1, 7.001e+2
-1.972, -5.736e-5, 1.122e-1, 7.007e+2
-1.911, -4.207e-5, 8.285e-2, 7.013e+2
-1.850, -3.257e-5, 6.672e-2, 7.019e+2
-1.789, -2.592e-5, 5.851e-2, 7.025e+2
-1.728, -2.107e-5, 5.137e-2, 7.031e+2
-1.667, -1.719e-5, 5.475e-2, 7.037e+2
-1.606, -1.403e-5, 4.780e-2, 7.043e+2
-1.545, -1.140e-5, 4.383e-2, 7.049e+2
-1.484, -9.146e-6, 3.756e-2, 7.055e+2
-1.423, -6.965e-6, 3.559e-2, 7.062e+2
-1.362, -5.166e-6, 2.862e-2, 7.068e+2
-1.301, -3.469e-6, 2.990e-2, 7.074e+2
-1.240, -1.943e-6, 2.762e-2, 7.080e+2
-1.179, -4.950e-7, 2.547e-2, 7.086e+2
-1.118, 8.247e-7, 1.851e-2, 7.092e+2
-1.057, 2.139e-6, 2.177e-2, 7.098e+2
-0.996, 3.316e-6, 1.915e-2, 7.104e+2
-0.935, 4.507e-6, 1.837e-2, 7.110e+2
-0.874, 5.521e-6, 1.634e-2, 7.117e+2
-0.813, 6.655e-6, 1.895e-2, 7.123e+2
-0.752, 7.524e-6, 1.521e-2, 7.129e+2
-0.691, 8.483e-6, 1.701e-2, 7.135e+2
-0.630, 9.221e-6, 1.729e-2, 7.141e+2
-0.569, 9.992e-6, 1.810e-2, 7.147e+2
-0.508, 1.060e-5, 1.467e-2, 7.153e+2
-0.447, 1.120e-5, 1.684e-2, 7.159e+2
-0.386, 1.163e-5, 1.619e-2, 7.165e+2
-0.325, 1.212e-5, 1.725e-2, 7.171e+2
-0.264, 1.243e-5, 1.527e-2, 7.178e+2
-0.203, 1.285e-5, 1.761e-2, 7.184e+2
-0.142, 1.311e-5, 1.787e-2, 7.190e+2
-0.081, 1.348e-5, 1.648e-2, 7.196e+2
-0.020, 1.363e-5, 1.543e-2, 7.202e+2
-0.041, 1.120e-5, 1.771e-2, 7.208e+2
-0.102, 9.114e-6, 1.561e-2, 7.214e+2
-0.163, 7.697e-6, 1.554e-2, 7.220e+2
-0.224, 6.397e-6, 1.586e-2, 7.226e+2
-0.285, 5.377e-6, 1.749e-2, 7.233e+2
-0.346, 4.274e-6, 1.531e-2, 7.239e+2
-0.407, 3.298e-6, 1.612e-2, 7.245e+2
-0.468, 2.284e-6, 1.717e-2, 7.251e+2
-0.529, 1.374e-6, 1.681e-2, 7.257e+2
-0.590, 4.242e-7, 1.590e-2, 7.263e+2
-0.651, -4.451e-7, 1.757e-2, 7.269e+2
-0.712, -1.532e-6, 1.728e-2, 7.275e+2
-0.773, -2.564e-6, 1.593e-2, 7.281e+2
-0.834, -3.886e-6, 1.671e-2, 7.287e+2
-0.895, -5.192e-6, 1.985e-2, 7.294e+2
-0.956, -6.784e-6, 2.198e-2, 7.300e+2
-1.017, -8.501e-6, 2.404e-2, 7.306e+2
-1.078, -1.055e-5, 3.098e-2, 7.312e+2
-1.139, -1.276e-5, 3.449e-2, 7.318e+2
-1.200, -1.547e-5, 4.026e-2, 7.324e+2
-1.261, -1.844e-5, 4.664e-2, 7.330e+2
-1.322, -2.181e-5, 6.384e-2, 7.336e+2
-1.383, -2.536e-5, 7.494e-2, 7.342e+2
-1.444, -2.931e-5, 9.581e-2, 7.349e+2
-1.505, -3.330e-5, 1.210e-1, 7.355e+2
-1.566, -3.736e-5, 1.448e-1, 7.361e+2
-1.627, -4.128e-5, 1.508e-1, 7.367e+2
-1.688, -4.522e-5, 1.547e-1, 7.373e+2
-1.749, -4.892e-5, 1.475e-1, 7.379e+2
-1.810, -5.280e-5, 1.514e-1, 7.385e+2
-1.871, -5.686e-5, 1.317e-1, 7.391e+2
-1.932, -6.175e-5, 1.344e-1, 7.397e+2
-1.993, -6.803e-5, 1.478e-1, 7.404e+2
-1.946, -4.963e-5, 1.010e-1, 7.410e+2
-1.885, -3.745e-5, 7.560e-2, 7.416e+2
-1.824, -2.944e-5, 6.843e-2, 7.422e+2
-1.763, -2.371e-5, 5.285e-2, 7.428e+2
-1.702, -1.929e-5, 5.605e-2, 7.434e+2
-1.641, -1.577e-5, 4.714e-2, 7.440e+2
-1.580, -1.284e-5, 4.603e-2, 7.446e+2
-1.519, -1.035e-5, 3.700e-2, 7.452e+2
-1.458, -8.205e-6, 3.681e-2, 7.458e+2
-1.397, -6.147e-6, 3.145e-2, 7.465e+2
-1.336, -4.463e-6, 3.493e-2, 7.471e+2
-1.275, -2.862e-6, 2.515e-2, 7.477e+2
-1.214, -1.385e-6, 2.761e-2, 7.483e+2
-1.153, 7.474e-8, 2.196e-2, 7.489e+2
-1.092, 1.349e-6, 2.249e-2, 7.495e+2
-1.031, 2.576e-6, 1.844e-2, 7.501e+2
-0.970, 3.776e-6, 2.193e-2, 7.507e+2
-0.909, 4.890e-6, 1.663e-2, 7.513e+2
-0.848, 5.961e-6, 1.890e-2, 7.520e+2
-0.787, 6.951e-6, 1.501e-2, 7.526e+2
-0.726, 7.934e-6, 1.912e-2, 7.532e+2
-0.665, 8.729e-6, 1.461e-2, 7.538e+2
-0.604, 9.540e-6, 1.836e-2, 7.544e+2
-0.543, 1.018e-5, 1.555e-2, 7.550e+2
-0.482, 1.086e-5, 1.845e-2, 7.556e+2
-0.421, 1.140e-5, 1.391e-2, 7.562e+2
-0.360, 1.185e-5, 1.820e-2, 7.568e+2
-0.299, 1.222e-5, 1.651e-2, 7.574e+2
-0.238, 1.266e-5, 1.756e-2, 7.581e+2
-0.177, 1.291e-5, 1.549e-2, 7.587e+2
-0.116, 1.329e-5, 1.782e-2, 7.593e+2
-0.055, 1.348e-5, 1.618e-2, 7.599e+2
-0.006, 1.310e-5, 1.658e-2, 7.605e+2
-0.067, 1.020e-5, 1.591e-2, 7.611e+2
-0.128, 8.534e-6, 1.886e-2, 7.617e+2
-0.189, 7.074e-6, 1.474e-2, 7.623e+2
-0.250, 6.020e-6, 1.693e-2, 7.629e+2
-0.311, 4.824e-6, 1.717e-2, 7.636e+2
-0.372, 3.911e-6, 1.672e-2, 7.642e+2
-0.433, 2.843e-6, 1.578e-2, 7.648e+2
-0.494, 1.947e-6, 1.730e-2, 7.654e+2
-0.555, 9.391e-7, 1.719e-2, 7.660e+2
-0.616, 9.073e-8, 1.605e-2, 7.666e+2
-0.677, -8.727e-7, 1.640e-2, 7.672e+2
-0.738, -1.887e-6, 1.643e-2, 7.678e+2
-0.799, -3.089e-6, 1.739e-2, 7.684e+2
-0.860, -4.364e-6, 1.626e-2, 7.690e+2
-0.921, -5.768e-6, 2.146e-2, 7.697e+2
-0.982, -7.371e-6, 2.147e-2, 7.703e+2
-1.043, -9.256e-6, 2.469e-2, 7.709e+2
-1.104, -1.129e-5, 2.780e-2, 7.715e+2
-1.165, -1.374e-5, 3.589e-2, 7.721e+2
-1.226, -1.649e-5, 3.437e-2, 7.727e+2
-1.287, -1.960e-5, 5.237e-2, 7.733e+2
-1.348, -2.304e-5, 6.232e-2, 7.739e+2
-1.409, -2.668e-5, 8.329e-2, 7.745e+2
-1.470, -3.062e-5, 1.047e-1, 7.752e+2
-1.531, -3.460e-5, 1.278e-1, 7.758e+2
-1.592, -3.870e-5, 1.375e-1, 7.764e+2
-1.653, -4.263e-5, 1.569e-1, 7.770e+2
-1.714, -4.651e-5, 1.546e-1, 7.776e+2
-1.775, -5.024e-5, 1.419e-1, 7.782e+2
-1.836, -5.418e-5, 1.388e-1, 7.788e+2
-1.897, -5.852e-5, 1.278e-1, 7.794e+2
-1.958, -6.392e-5, 1.379e-1, 7.800e+2
-1.981, -5.991e-5, 1.202e-1, 7.807e+2
-1.920, -4.364e-5, 8.107e-2, 7.813e+2
-1.859, -3.359e-5, 6.965e-2, 7.819e+2
-1.798, -2.676e-5, 6.152e-2, 7.825e+2
-1.737, -2.163e-5, 5.853e-2, 7.831e+2
-1.676, -1.771e-5, 4.986e-2, 7.837e+2
-1.615, -1.442e-5, 4.720e-2, 7.843e+2
-1.554, -1.177e-5, 4.126e-2, 7.849e+2
-1.493, -9.392e-6, 4.021e-2, 7.855e+2
-1.432, -7.337e-6, 3.592e-2, 7.861e+2
-1.371, -5.426e-6, 3.174e-2, 7.868e+2
-1.310, -3.801e-6, 2.720e-2, 7.874e+2
-1.249, -2.226e-6, 2.471e-2, 7.880e+2
-1.188, -8.032e-7, 2.480e-2, 7.886e+2
-1.127, 5.620e-7, 2.118e-2, 7.892e+2
-1.066, 1.809e-6, 2.019e-2, 7.898e+2
-1.005, 3.040e-6, 1.818e-2, 7.904e+2
-0.944, 4.195e-6, 2.301e-2, 7.910e+2
-0.883, 5.279e-6, 1.456e-2, 7.916e+2
-0.822, 6.295e-6, 1.848e-2, 7.923e+2
-0.761, 7.307e-6, 1.601e-2, 7.929e+2
-0.700, 8.190e-6, 1.730e-2, 7.935e+2
-0.639, 9.070e-6, 1.509e-2, 7.941e+2
-0.578, 9.770e-6, 1.849e-2, 7.947e+2
-0.517, 1.044e-5, 1.555e-2, 7.953e+2
-0.456, 1.103e-5, 1.757e-2, 7.959e+2
-0.395, 1.155e-5, 1.473e-2, 7.965e+2
-0.334, 1.199e-5, 1.909e-2, 7.971e+2
-0.273, 1.241e-5, 1.403e-2, 7.977e+2
-0.212, 1.276e-5, 2.051e-2, 7.984e+2
-0.151, 1.306e-5, 1.570e-2, 7.990e+2
-0.090, 1.335e-5, 1.848e-2, 7.996e+2
-0.029, 1.366e-5, 1.465e-2, 8.002e+2
-0.002, 1.379e-5, 1.809e-2, 8.005e+2