File: data/FL/FL/2023.4.27/10号b-cds.txt
Apr. 27, 2023   12:59:57
Cyclic Voltammetry
File: 10Data Source:  Experiment
Instrument Model:  CHI660E
Ref. Electrode: Ag/AgCl
Header:
Note:

Init E (V) = 0
High E (V) = 0
Low E (V) = -2
Init P/N = N
Scan Rate (V/s) = 0.1
Segment = 40
Sample Interval (V) = 0.001
Quiet Time (sec) = 5
Sensitivity (A/V) = 0.001

Segment 1:

Segment 2:

Segment 3:

Segment 4:

Segment 5:

Segment 6:

Segment 7:

Segment 8:

Segment 9:

Segment 10:

Segment 11:

Segment 12:

Segment 13:

Segment 14:

Segment 15:

Segment 16:

Segment 17:

Segment 18:

Segment 19:

Segment 20:

Segment 21:

Segment 22:

Segment 23:

Segment 24:

Segment 25:

Segment 26:

Segment 27:

Segment 28:

Segment 29:

Segment 30:

Segment 31:

Segment 32:

Segment 33:

Segment 34:

Segment 35:

Segment 36:

Segment 37:

Segment 38:

Segment 39:

Segment 40:

Potential/V, Current/A, Voltage/V, Time/s

0.000, -8.826e-7, 1.706e-2, 1.000e-2
-0.020, -1.327e-6, 1.742e-2, 2.100e-1
-0.040, -1.668e-6, 1.644e-2, 4.100e-1
-0.060, -2.051e-6, 1.600e-2, 6.100e-1
-0.080, -2.478e-6, 1.682e-2, 8.100e-1
-0.100, -2.962e-6, 1.732e-2, 1.010e+0
-0.120, -3.522e-6, 1.673e-2, 1.210e+0
-0.140, -4.217e-6, 1.706e-2, 1.410e+0
-0.160, -4.894e-6, 1.727e-2, 1.610e+0
-0.180, -5.701e-6, 1.689e-2, 1.810e+0
-0.200, -6.625e-6, 1.641e-2, 2.010e+0
-0.220, -7.652e-6, 1.791e-2, 2.210e+0
-0.240, -8.869e-6, 1.772e-2, 2.410e+0
-0.260, -1.023e-5, 1.804e-2, 2.610e+0
-0.280, -1.179e-5, 1.827e-2, 2.810e+0
-0.300, -1.359e-5, 1.779e-2, 3.010e+0
-0.320, -1.566e-5, 1.606e-2, 3.210e+0
-0.340, -1.793e-5, 1.798e-2, 3.410e+0
-0.360, -2.047e-5, 1.795e-2, 3.610e+0
-0.380, -2.329e-5, 1.751e-2, 3.810e+0
-0.400, -2.630e-5, 1.763e-2, 4.010e+0
-0.420, -2.966e-5, 1.720e-2, 4.210e+0
-0.440, -3.339e-5, 1.960e-2, 4.410e+0
-0.460, -3.738e-5, 1.761e-2, 4.610e+0
-0.480, -4.168e-5, 1.787e-2, 4.810e+0
-0.500, -4.641e-5, 1.875e-2, 5.010e+0
-0.520, -5.143e-5, 1.677e-2, 5.210e+0
-0.540, -5.677e-5, 1.847e-2, 5.410e+0
-0.560, -6.247e-5, 1.834e-2, 5.610e+0
-0.580, -6.844e-5, 1.791e-2, 5.810e+0
-0.600, -7.477e-5, 1.723e-2, 6.010e+0
-0.620, -8.140e-5, 1.897e-2, 6.210e+0
-0.640, -8.832e-5, 1.765e-2, 6.410e+0
-0.660, -9.557e-5, 1.779e-2, 6.610e+0
-0.680, -1.031e-4, 1.806e-2, 6.810e+0
-0.700, -1.109e-4, 1.885e-2, 7.010e+0
-0.720, -1.190e-4, 1.764e-2, 7.210e+0
-0.740, -1.271e-4, 1.907e-2, 7.410e+0
-0.760, -1.357e-4, 2.042e-2, 7.610e+0
-0.780, -1.445e-4, 2.028e-2, 7.810e+0
-0.800, -1.535e-4, 2.137e-2, 8.010e+0
-0.820, -1.625e-4, 2.350e-2, 8.210e+0
-0.840, -1.716e-4, 2.649e-2, 8.410e+0
-0.860, -1.805e-4, 3.308e-2, 8.610e+0
-0.880, -1.889e-4, 4.838e-2, 8.810e+0
-0.900, -1.967e-4, 6.836e-2, 9.010e+0
-0.920, -2.039e-4, 8.710e-2, 9.210e+0
-0.940, -2.106e-4, 1.105e-1, 9.410e+0
-0.960, -2.166e-4, 1.421e-1, 9.610e+0
-0.980, -2.223e-4, 1.794e-1, 9.810e+0
-1.000, -2.277e-4, 2.084e-1, 1.001e+1
-1.020, -2.327e-4, 2.389e-1, 1.021e+1
-1.040, -2.375e-4, 2.844e-1, 1.041e+1
-1.060, -2.418e-4, 3.185e-1, 1.061e+1
-1.080, -2.458e-4, 3.576e-1, 1.081e+1
-1.100, -2.493e-4, 3.777e-1, 1.101e+1
-1.120, -2.522e-4, 4.030e-1, 1.121e+1
-1.140, -2.546e-4, 4.314e-1, 1.141e+1
-1.160, -2.562e-4, 4.324e-1, 1.161e+1
-1.180, -2.573e-4, 4.358e-1, 1.181e+1
-1.200, -2.575e-4, 4.171e-1, 1.201e+1
-1.220, -2.568e-4, 4.328e-1, 1.221e+1
-1.240, -2.551e-4, 4.209e-1, 1.241e+1
-1.260, -2.524e-4, 4.456e-1, 1.261e+1
-1.280, -2.487e-4, 4.429e-1, 1.281e+1
-1.300, -2.440e-4, 4.673e-1, 1.301e+1
-1.320, -2.382e-4, 4.790e-1, 1.321e+1
-1.340, -2.316e-4, 5.073e-1, 1.341e+1
-1.360, -2.241e-4, 5.130e-1, 1.361e+1
-1.380, -2.160e-4, 5.210e-1, 1.381e+1
-1.400, -2.076e-4, 4.965e-1, 1.401e+1
-1.420, -1.991e-4, 4.661e-1, 1.421e+1
-1.440, -1.909e-4, 4.463e-1, 1.441e+1
-1.460, -1.832e-4, 4.015e-1, 1.461e+1
-1.480, -1.763e-4, 3.623e-1, 1.481e+1
-1.500, -1.701e-4, 3.000e-1, 1.501e+1
-1.520, -1.648e-4, 2.714e-1, 1.521e+1
-1.540, -1.605e-4, 2.265e-1, 1.541e+1
-1.560, -1.569e-4, 1.991e-1, 1.561e+1
-1.580, -1.543e-4, 1.826e-1, 1.581e+1
-1.600, -1.526e-4, 1.767e-1, 1.601e+1
-1.620, -1.518e-4, 1.617e-1, 1.621e+1
-1.640, -1.520e-4, 1.393e-1, 1.641e+1
-1.660, -1.532e-4, 1.386e-1, 1.661e+1
-1.680, -1.552e-4, 1.357e-1, 1.681e+1
-1.700, -1.579e-4, 1.302e-1, 1.701e+1
-1.720, -1.614e-4, 1.369e-1, 1.721e+1
-1.740, -1.653e-4, 1.560e-1, 1.741e+1
-1.760, -1.698e-4, 1.707e-1, 1.761e+1
-1.780, -1.746e-4, 1.774e-1, 1.781e+1
-1.800, -1.796e-4, 2.059e-1, 1.801e+1
-1.820, -1.845e-4, 2.239e-1, 1.821e+1
-1.840, -1.891e-4, 2.422e-1, 1.841e+1
-1.860, -1.934e-4, 2.763e-1, 1.861e+1
-1.880, -1.971e-4, 2.826e-1, 1.881e+1
-1.900, -2.002e-4, 3.092e-1, 1.901e+1
-1.920, -2.028e-4, 3.433e-1, 1.921e+1
-1.940, -2.047e-4, 3.880e-1, 1.941e+1
-1.960, -2.063e-4, 4.296e-1, 1.961e+1
-1.980, -2.075e-4, 5.035e-1, 1.981e+1
-2.000, -2.083e-4, 5.862e-1, 2.001e+1
-1.980, -1.828e-4, 5.226e-1, 2.021e+1
-1.960, -1.633e-4, 4.847e-1, 2.041e+1
-1.940, -1.472e-4, 4.198e-1, 2.061e+1
-1.920, -1.336e-4, 3.774e-1, 2.081e+1
-1.900, -1.218e-4, 3.463e-1, 2.101e+1
-1.880, -1.114e-4, 3.278e-1, 2.121e+1
-1.860, -1.022e-4, 2.935e-1, 2.141e+1
-1.840, -9.407e-5, 2.774e-1, 2.161e+1
-1.820, -8.675e-5, 2.511e-1, 2.181e+1
-1.800, -8.025e-5, 2.436e-1, 2.201e+1
-1.780, -7.434e-5, 2.234e-1, 2.221e+1
-1.760, -6.905e-5, 2.059e-1, 2.241e+1
-1.740, -6.433e-5, 1.931e-1, 2.261e+1
-1.720, -6.012e-5, 1.827e-1, 2.281e+1
-1.700, -5.627e-5, 1.726e-1, 2.301e+1
-1.680, -5.291e-5, 1.629e-1, 2.321e+1
-1.660, -4.989e-5, 1.644e-1, 2.341e+1
-1.640, -4.714e-5, 1.493e-1, 2.361e+1
-1.620, -4.466e-5, 1.550e-1, 2.381e+1
-1.600, -4.237e-5, 1.333e-1, 2.401e+1
-1.580, -4.042e-5, 1.348e-1, 2.421e+1
-1.560, -3.860e-5, 1.260e-1, 2.441e+1
-1.540, -3.695e-5, 1.178e-1, 2.461e+1
-1.520, -3.541e-5, 1.226e-1, 2.481e+1
-1.500, -3.396e-5, 1.214e-1, 2.501e+1
-1.480, -3.269e-5, 1.172e-1, 2.521e+1
-1.460, -3.142e-5, 1.164e-1, 2.541e+1
-1.440, -3.025e-5, 1.144e-1, 2.561e+1
-1.420, -2.908e-5, 1.123e-1, 2.581e+1
-1.400, -2.798e-5, 1.163e-1, 2.601e+1
-1.380, -2.694e-5, 1.078e-1, 2.621e+1
-1.360, -2.590e-5, 1.062e-1, 2.641e+1
-1.340, -2.497e-5, 1.093e-1, 2.661e+1
-1.320, -2.403e-5, 1.045e-1, 2.681e+1
-1.300, -2.311e-5, 1.013e-1, 2.701e+1
-1.280, -2.213e-5, 9.513e-2, 2.721e+1
-1.260, -2.122e-5, 9.372e-2, 2.741e+1
-1.240, -2.039e-5, 9.079e-2, 2.761e+1
-1.220, -1.988e-5, 9.071e-2, 2.781e+1
-1.200, -1.899e-5, 9.369e-2, 2.801e+1
-1.180, -1.803e-5, 9.163e-2, 2.821e+1
-1.160, -1.737e-5, 7.957e-2, 2.841e+1
-1.140, -1.676e-5, 7.657e-2, 2.861e+1
-1.120, -1.581e-5, 7.496e-2, 2.881e+1
-1.100, -1.488e-5, 6.850e-2, 2.901e+1
-1.080, -1.395e-5, 6.326e-2, 2.921e+1
-1.060, -1.303e-5, 6.827e-2, 2.941e+1
-1.040, -1.212e-5, 5.841e-2, 2.961e+1
-1.020, -1.130e-5, 6.053e-2, 2.981e+1
-1.000, -1.048e-5, 5.781e-2, 3.001e+1
-0.980, -9.680e-6, 5.653e-2, 3.021e+1
-0.960, -8.862e-6, 5.455e-2, 3.041e+1
-0.940, -8.032e-6, 4.798e-2, 3.061e+1
-0.920, -7.212e-6, 4.674e-2, 3.081e+1
-0.900, -6.446e-6, 4.111e-2, 3.101e+1
-0.880, -5.676e-6, 3.439e-2, 3.121e+1
-0.860, -4.943e-6, 3.083e-2, 3.141e+1
-0.840, -4.233e-6, 2.510e-2, 3.161e+1
-0.820, -3.529e-6, 2.374e-2, 3.181e+1
-0.800, -2.769e-6, 1.962e-2, 3.201e+1
-0.780, -2.044e-6, 1.788e-2, 3.221e+1
-0.760, -1.359e-6, 1.565e-2, 3.241e+1
-0.740, -6.857e-7, 1.675e-2, 3.261e+1
-0.720, -6.369e-8, 1.765e-2, 3.281e+1
-0.700, 5.319e-7, 1.479e-2, 3.301e+1
-0.680, 1.073e-6, 1.705e-2, 3.321e+1
-0.660, 1.609e-6, 1.735e-2, 3.341e+1
-0.640, 2.059e-6, 1.459e-2, 3.361e+1
-0.620, 2.514e-6, 1.684e-2, 3.381e+1
-0.600, 2.889e-6, 1.698e-2, 3.401e+1
-0.580, 3.309e-6, 1.626e-2, 3.421e+1
-0.560, 3.655e-6, 1.740e-2, 3.441e+1
-0.540, 4.071e-6, 1.662e-2, 3.461e+1
-0.520, 4.378e-6, 1.591e-2, 3.481e+1
-0.500, 4.655e-6, 1.614e-2, 3.501e+1
-0.480, 4.978e-6, 1.674e-2, 3.521e+1
-0.460, 5.248e-6, 1.594e-2, 3.541e+1
-0.440, 5.537e-6, 1.631e-2, 3.561e+1
-0.420, 5.775e-6, 1.705e-2, 3.581e+1
-0.400, 6.014e-6, 1.750e-2, 3.601e+1
-0.380, 6.268e-6, 1.668e-2, 3.621e+1
-0.360, 6.498e-6, 1.706e-2, 3.641e+1
-0.340, 6.684e-6, 1.772e-2, 3.661e+1
-0.320, 6.899e-6, 1.608e-2, 3.681e+1
-0.300, 7.065e-6, 1.811e-2, 3.701e+1
-0.280, 7.268e-6, 1.726e-2, 3.721e+1
-0.260, 7.461e-6, 1.669e-2, 3.741e+1
-0.240, 7.669e-6, 1.673e-2, 3.761e+1
-0.220, 7.827e-6, 1.691e-2, 3.781e+1
-0.200, 7.960e-6, 1.614e-2, 3.801e+1
-0.180, 8.113e-6, 1.681e-2, 3.821e+1
-0.160, 8.262e-6, 1.726e-2, 3.841e+1
-0.140, 8.439e-6, 1.906e-2, 3.861e+1
-0.120, 8.532e-6, 1.702e-2, 3.881e+1
-0.100, 8.680e-6, 1.732e-2, 3.901e+1
-0.080, 8.783e-6, 1.738e-2, 3.921e+1
-0.060, 8.949e-6, 1.694e-2, 3.941e+1
-0.040, 9.110e-6, 1.803e-2, 3.961e+1
-0.020, 9.303e-6, 1.684e-2, 3.981e+1
-0.000, 9.248e-6, 1.672e-2, 4.001e+1
-0.020, 7.288e-6, 1.806e-2, 4.021e+1
-0.040, 6.201e-6, 1.848e-2, 4.041e+1
-0.060, 5.434e-6, 1.629e-2, 4.061e+1
-0.080, 4.768e-6, 1.718e-2, 4.081e+1
-0.100, 4.220e-6, 1.849e-2, 4.101e+1
-0.120, 3.748e-6, 1.729e-2, 4.121e+1
-0.140, 3.291e-6, 1.773e-2, 4.141e+1
-0.160, 2.918e-6, 1.879e-2, 4.161e+1
-0.180, 2.600e-6, 1.751e-2, 4.181e+1
-0.200, 2.231e-6, 1.802e-2, 4.201e+1
-0.220, 1.877e-6, 1.852e-2, 4.221e+1
-0.240, 1.535e-6, 1.799e-2, 4.241e+1
-0.260, 1.207e-6, 1.755e-2, 4.261e+1
-0.280, 9.035e-7, 1.876e-2, 4.281e+1
-0.300, 5.282e-7, 1.775e-2, 4.301e+1
-0.320, 1.781e-7, 1.825e-2, 4.321e+1
-0.340, -2.095e-7, 1.932e-2, 4.341e+1
-0.360, -6.125e-7, 1.841e-2, 4.361e+1
-0.380, -1.054e-6, 1.758e-2, 4.381e+1
-0.400, -1.468e-6, 1.803e-2, 4.401e+1
-0.420, -1.935e-6, 1.905e-2, 4.421e+1
-0.440, -2.384e-6, 1.720e-2, 4.441e+1
-0.460, -2.942e-6, 1.821e-2, 4.461e+1
-0.480, -3.511e-6, 1.924e-2, 4.481e+1
-0.500, -4.111e-6, 1.733e-2, 4.501e+1
-0.520, -4.735e-6, 1.881e-2, 4.521e+1
-0.540, -5.466e-6, 1.953e-2, 4.541e+1
-0.560, -6.266e-6, 1.776e-2, 4.561e+1
-0.580, -7.159e-6, 1.846e-2, 4.581e+1
-0.600, -8.158e-6, 1.861e-2, 4.601e+1
-0.620, -9.255e-6, 1.869e-2, 4.621e+1
-0.640, -1.040e-5, 1.901e-2, 4.641e+1
-0.660, -1.167e-5, 2.243e-2, 4.661e+1
-0.680, -1.308e-5, 1.927e-2, 4.681e+1
-0.700, -1.462e-5, 2.191e-2, 4.701e+1
-0.720, -1.632e-5, 1.958e-2, 4.721e+1
-0.740, -1.817e-5, 2.012e-2, 4.741e+1
-0.760, -2.016e-5, 1.957e-2, 4.761e+1
-0.780, -2.223e-5, 2.246e-2, 4.781e+1
-0.800, -2.432e-5, 2.630e-2, 4.801e+1
-0.820, -2.620e-5, 3.233e-2, 4.821e+1
-0.840, -2.796e-5, 4.517e-2, 4.841e+1
-0.860, -2.956e-5, 5.867e-2, 4.861e+1
-0.880, -3.104e-5, 7.459e-2, 4.881e+1
-0.900, -3.243e-5, 9.022e-2, 4.901e+1
-0.920, -3.381e-5, 9.878e-2, 4.921e+1
-0.940, -3.514e-5, 1.158e-1, 4.941e+1
-0.960, -3.646e-5, 1.225e-1, 4.961e+1
-0.980, -3.779e-5, 1.341e-1, 4.981e+1
-1.000, -3.913e-5, 1.329e-1, 5.001e+1
-1.020, -4.049e-5, 1.444e-1, 5.021e+1
-1.040, -4.180e-5, 1.446e-1, 5.041e+1
-1.060, -4.318e-5, 1.458e-1, 5.061e+1
-1.080, -4.453e-5, 1.531e-1, 5.081e+1
-1.100, -4.589e-5, 1.498e-1, 5.101e+1
-1.120, -4.720e-5, 1.644e-1, 5.121e+1
-1.140, -4.846e-5, 1.700e-1, 5.141e+1
-1.160, -4.975e-5, 1.928e-1, 5.161e+1
-1.180, -5.100e-5, 1.992e-1, 5.181e+1
-1.200, -5.212e-5, 2.246e-1, 5.201e+1
-1.220, -5.321e-5, 2.323e-1, 5.221e+1
-1.240, -5.416e-5, 2.521e-1, 5.241e+1
-1.260, -5.506e-5, 2.642e-1, 5.261e+1
-1.280, -5.594e-5, 2.729e-1, 5.281e+1
-1.300, -5.672e-5, 2.723e-1, 5.301e+1
-1.320, -5.746e-5, 2.774e-1, 5.321e+1
-1.340, -5.809e-5, 2.668e-1, 5.341e+1
-1.360, -5.869e-5, 2.725e-1, 5.361e+1
-1.380, -5.930e-5, 2.732e-1, 5.381e+1
-1.400, -5.985e-5, 2.655e-1, 5.401e+1
-1.420, -6.036e-5, 2.518e-1, 5.421e+1
-1.440, -6.095e-5, 2.418e-1, 5.441e+1
-1.460, -6.155e-5, 2.379e-1, 5.461e+1
-1.480, -6.222e-5, 2.241e-1, 5.481e+1
-1.500, -6.297e-5, 2.138e-1, 5.501e+1
-1.520, -6.379e-5, 2.028e-1, 5.521e+1
-1.540, -6.478e-5, 2.010e-1, 5.541e+1
-1.560, -6.600e-5, 1.868e-1, 5.561e+1
-1.580, -6.738e-5, 1.802e-1, 5.581e+1
-1.600, -6.910e-5, 1.775e-1, 5.601e+1
-1.620, -7.103e-5, 1.738e-1, 5.621e+1
-1.640, -7.324e-5, 1.816e-1, 5.641e+1
-1.660, -7.576e-5, 1.684e-1, 5.661e+1
-1.680, -7.859e-5, 1.652e-1, 5.681e+1
-1.700, -8.163e-5, 1.703e-1, 5.701e+1
-1.720, -8.475e-5, 1.671e-1, 5.721e+1
-1.740, -8.810e-5, 1.637e-1, 5.741e+1
-1.760, -9.152e-5, 1.854e-1, 5.761e+1
-1.780, -9.494e-5, 1.838e-1, 5.781e+1
-1.800, -9.831e-5, 1.893e-1, 5.801e+1
-1.820, -1.016e-4, 1.989e-1, 5.821e+1
-1.840, -1.047e-4, 2.122e-1, 5.841e+1
-1.860, -1.079e-4, 2.217e-1, 5.861e+1
-1.880, -1.111e-4, 2.455e-1, 5.881e+1
-1.900, -1.144e-4, 2.652e-1, 5.901e+1
-1.920, -1.178e-4, 2.935e-1, 5.921e+1
-1.940, -1.216e-4, 3.317e-1, 5.941e+1
-1.960, -1.255e-4, 3.971e-1, 5.961e+1
-1.980, -1.300e-4, 4.727e-1, 5.981e+1
-2.000, -1.344e-4, 5.505e-1, 6.001e+1
-1.980, -1.146e-4, 4.333e-1, 6.021e+1
-1.960, -1.000e-4, 3.693e-1, 6.041e+1
-1.940, -8.815e-5, 3.296e-1, 6.061e+1
-1.920, -7.851e-5, 2.928e-1, 6.081e+1
-1.900, -7.046e-5, 2.808e-1, 6.101e+1
-1.880, -6.384e-5, 2.580e-1, 6.121e+1
-1.860, -5.807e-5, 2.441e-1, 6.141e+1
-1.840, -5.310e-5, 2.319e-1, 6.161e+1
-1.820, -4.883e-5, 2.144e-1, 6.181e+1
-1.800, -4.511e-5, 1.964e-1, 6.201e+1
-1.780, -4.183e-5, 1.935e-1, 6.221e+1
-1.760, -3.899e-5, 1.791e-1, 6.241e+1
-1.740, -3.648e-5, 1.740e-1, 6.261e+1
-1.720, -3.424e-5, 1.699e-1, 6.281e+1
-1.700, -3.228e-5, 1.565e-1, 6.301e+1
-1.680, -3.047e-5, 1.472e-1, 6.321e+1
-1.660, -2.882e-5, 1.435e-1, 6.341e+1
-1.640, -2.734e-5, 1.425e-1, 6.361e+1
-1.620, -2.593e-5, 1.328e-1, 6.381e+1
-1.600, -2.474e-5, 1.275e-1, 6.401e+1
-1.580, -2.359e-5, 1.248e-1, 6.421e+1
-1.560, -2.253e-5, 1.257e-1, 6.441e+1
-1.540, -2.146e-5, 1.159e-1, 6.461e+1
-1.520, -2.049e-5, 1.117e-1, 6.481e+1
-1.500, -1.951e-5, 1.096e-1, 6.501e+1
-1.480, -1.879e-5, 1.136e-1, 6.521e+1
-1.460, -1.793e-5, 1.114e-1, 6.541e+1
-1.440, -1.706e-5, 1.077e-1, 6.561e+1
-1.420, -1.618e-5, 1.032e-1, 6.581e+1
-1.400, -1.531e-5, 9.923e-2, 6.601e+1
-1.380, -1.445e-5, 9.798e-2, 6.621e+1
-1.360, -1.366e-5, 9.779e-2, 6.641e+1
-1.340, -1.294e-5, 9.253e-2, 6.661e+1
-1.320, -1.218e-5, 9.400e-2, 6.681e+1
-1.300, -1.146e-5, 8.973e-2, 6.701e+1
-1.280, -1.077e-5, 8.346e-2, 6.721e+1
-1.260, -1.012e-5, 8.526e-2, 6.741e+1
-1.240, -9.444e-6, 8.747e-2, 6.761e+1
-1.220, -8.697e-6, 7.765e-2, 6.781e+1
-1.200, -7.960e-6, 6.954e-2, 6.801e+1
-1.180, -7.268e-6, 7.177e-2, 6.821e+1
-1.160, -6.650e-6, 6.505e-2, 6.841e+1
-1.140, -6.004e-6, 6.254e-2, 6.861e+1
-1.120, -5.569e-6, 6.273e-2, 6.881e+1
-1.100, -5.173e-6, 5.877e-2, 6.901e+1
-1.080, -4.575e-6, 5.571e-2, 6.921e+1
-1.060, -3.956e-6, 5.424e-2, 6.941e+1
-1.040, -3.288e-6, 4.980e-2, 6.961e+1
-1.020, -2.718e-6, 5.110e-2, 6.981e+1
-1.000, -2.103e-6, 4.845e-2, 7.001e+1
-0.980, -1.507e-6, 4.495e-2, 7.021e+1
-0.960, -9.416e-7, 4.058e-2, 7.041e+1
-0.940, -3.430e-7, 4.193e-2, 7.061e+1
-0.920, 1.769e-7, 4.199e-2, 7.081e+1
-0.900, 7.201e-7, 3.465e-2, 7.101e+1
-0.880, 1.266e-6, 2.994e-2, 7.121e+1
-0.860, 1.789e-6, 2.532e-2, 7.141e+1
-0.840, 2.294e-6, 2.192e-2, 7.161e+1
-0.820, 2.740e-6, 2.084e-2, 7.181e+1
-0.800, 3.189e-6, 1.806e-2, 7.201e+1
-0.780, 3.667e-6, 1.846e-2, 7.221e+1
-0.760, 4.152e-6, 1.697e-2, 7.241e+1
-0.740, 4.580e-6, 1.677e-2, 7.261e+1
-0.720, 4.952e-6, 1.829e-2, 7.281e+1
-0.700, 5.328e-6, 1.731e-2, 7.301e+1
-0.680, 5.664e-6, 1.656e-2, 7.321e+1
-0.660, 5.994e-6, 1.725e-2, 7.341e+1
-0.640, 6.318e-6, 1.754e-2, 7.361e+1
-0.620, 6.580e-6, 1.642e-2, 7.381e+1
-0.600, 6.831e-6, 1.712e-2, 7.401e+1
-0.580, 7.096e-6, 1.721e-2, 7.421e+1
-0.560, 7.348e-6, 1.717e-2, 7.441e+1
-0.540, 7.543e-6, 1.747e-2, 7.461e+1
-0.520, 7.768e-6, 1.739e-2, 7.481e+1
-0.500, 7.992e-6, 1.705e-2, 7.501e+1
-0.480, 8.174e-6, 1.812e-2, 7.521e+1
-0.460, 8.395e-6, 1.771e-2, 7.541e+1
-0.440, 8.578e-6, 1.715e-2, 7.561e+1
-0.420, 8.788e-6, 1.812e-2, 7.581e+1
-0.400, 8.948e-6, 1.814e-2, 7.601e+1
-0.380, 9.107e-6, 1.739e-2, 7.621e+1
-0.360, 9.266e-6, 1.784e-2, 7.641e+1
-0.340, 9.429e-6, 1.809e-2, 7.661e+1
-0.320, 9.584e-6, 1.744e-2, 7.681e+1
-0.300, 9.712e-6, 1.826e-2, 7.701e+1
-0.280, 9.896e-6, 1.810e-2, 7.721e+1
-0.260, 1.007e-5, 1.831e-2, 7.741e+1
-0.240, 1.015e-5, 1.927e-2, 7.761e+1
-0.220, 1.029e-5, 1.795e-2, 7.781e+1
-0.200, 1.041e-5, 1.830e-2, 7.801e+1
-0.180, 1.050e-5, 2.275e-2, 7.821e+1
-0.160, 1.063e-5, 1.759e-2, 7.841e+1
-0.140, 1.075e-5, 1.879e-2, 7.861e+1
-0.120, 1.081e-5, 2.028e-2, 7.881e+1
-0.100, 1.095e-5, 1.892e-2, 7.901e+1
-0.080, 1.102e-5, 1.808e-2, 7.921e+1
-0.060, 1.116e-5, 1.934e-2, 7.941e+1
-0.040, 1.128e-5, 1.821e-2, 7.961e+1
-0.020, 1.143e-5, 1.779e-2, 7.981e+1
-0.000, 1.140e-5, 1.923e-2, 8.001e+1
-0.020, 9.435e-6, 1.846e-2, 8.021e+1
-0.040, 8.271e-6, 1.922e-2, 8.041e+1
-0.060, 7.408e-6, 1.966e-2, 8.061e+1
-0.080, 6.718e-6, 1.919e-2, 8.081e+1
-0.100, 6.149e-6, 1.900e-2, 8.101e+1
-0.120, 5.601e-6, 1.917e-2, 8.121e+1
-0.140, 5.103e-6, 1.844e-2, 8.141e+1
-0.160, 4.687e-6, 1.919e-2, 8.161e+1
-0.180, 4.307e-6, 2.015e-2, 8.181e+1
-0.200, 3.928e-6, 1.843e-2, 8.201e+1
-0.220, 3.545e-6, 1.958e-2, 8.221e+1
-0.240, 3.200e-6, 1.953e-2, 8.241e+1
-0.260, 2.887e-6, 1.868e-2, 8.261e+1
-0.280, 2.570e-6, 1.966e-2, 8.281e+1
-0.300, 2.235e-6, 1.966e-2, 8.301e+1
-0.320, 1.845e-6, 1.877e-2, 8.321e+1
-0.340, 1.503e-6, 2.006e-2, 8.341e+1
-0.360, 1.151e-6, 1.988e-2, 8.361e+1
-0.380, 7.712e-7, 1.847e-2, 8.381e+1
-0.400, 3.756e-7, 1.910e-2, 8.401e+1
-0.420, -3.108e-8, 1.919e-2, 8.421e+1
-0.440, -4.045e-7, 1.817e-2, 8.441e+1
-0.460, -8.137e-7, 1.925e-2, 8.461e+1
-0.480, -1.257e-6, 1.939e-2, 8.481e+1
-0.500, -1.732e-6, 1.893e-2, 8.501e+1
-0.520, -2.223e-6, 2.069e-2, 8.521e+1
-0.540, -2.744e-6, 1.945e-2, 8.541e+1
-0.560, -3.294e-6, 1.836e-2, 8.561e+1
-0.580, -3.869e-6, 1.879e-2, 8.581e+1
-0.600, -4.546e-6, 1.909e-2, 8.601e+1
-0.620, -5.225e-6, 1.901e-2, 8.621e+1
-0.640, -5.964e-6, 1.872e-2, 8.641e+1
-0.660, -6.749e-6, 1.920e-2, 8.661e+1
-0.680, -7.611e-6, 1.812e-2, 8.681e+1
-0.700, -8.617e-6, 1.877e-2, 8.701e+1
-0.720, -9.658e-6, 1.867e-2, 8.721e+1
-0.740, -1.080e-5, 1.766e-2, 8.741e+1
-0.760, -1.205e-5, 1.949e-2, 8.761e+1
-0.780, -1.341e-5, 2.195e-2, 8.781e+1
-0.800, -1.481e-5, 2.215e-2, 8.801e+1
-0.820, -1.627e-5, 2.893e-2, 8.821e+1
-0.840, -1.763e-5, 3.701e-2, 8.841e+1
-0.860, -1.897e-5, 4.621e-2, 8.861e+1
-0.880, -2.024e-5, 5.567e-2, 8.881e+1
-0.900, -2.144e-5, 6.680e-2, 8.901e+1
-0.920, -2.272e-5, 7.641e-2, 8.921e+1
-0.940, -2.392e-5, 8.968e-2, 8.941e+1
-0.960, -2.513e-5, 1.024e-1, 8.961e+1
-0.980, -2.641e-5, 1.057e-1, 8.981e+1
-1.000, -2.769e-5, 1.176e-1, 9.001e+1
-1.020, -2.898e-5, 1.157e-1, 9.021e+1
-1.040, -3.030e-5, 1.218e-1, 9.041e+1
-1.060, -3.170e-5, 1.311e-1, 9.061e+1
-1.080, -3.305e-5, 1.323e-1, 9.081e+1
-1.100, -3.449e-5, 1.358e-1, 9.101e+1
-1.120, -3.595e-5, 1.421e-1, 9.121e+1
-1.140, -3.744e-5, 1.560e-1, 9.141e+1
-1.160, -3.891e-5, 1.665e-1, 9.161e+1
-1.180, -4.041e-5, 1.816e-1, 9.181e+1
-1.200, -4.187e-5, 1.940e-1, 9.201e+1
-1.220, -4.336e-5, 2.155e-1, 9.221e+1
-1.240, -4.471e-5, 2.382e-1, 9.241e+1
-1.260, -4.611e-5, 2.467e-1, 9.261e+1
-1.280, -4.738e-5, 2.721e-1, 9.281e+1
-1.300, -4.858e-5, 2.880e-1, 9.301e+1
-1.320, -4.966e-5, 2.920e-1, 9.321e+1
-1.340, -5.072e-5, 3.015e-1, 9.341e+1
-1.360, -5.174e-5, 3.121e-1, 9.361e+1
-1.380, -5.267e-5, 3.232e-1, 9.381e+1
-1.400, -5.356e-5, 3.375e-1, 9.401e+1
-1.420, -5.437e-5, 3.341e-1, 9.421e+1
-1.440, -5.516e-5, 3.308e-1, 9.441e+1
-1.460, -5.589e-5, 3.309e-1, 9.461e+1
-1.480, -5.669e-5, 3.156e-1, 9.481e+1
-1.500, -5.742e-5, 3.111e-1, 9.501e+1
-1.520, -5.815e-5, 3.029e-1, 9.521e+1
-1.540, -5.887e-5, 3.002e-1, 9.541e+1
-1.560, -5.963e-5, 2.858e-1, 9.561e+1
-1.580, -6.051e-5, 2.735e-1, 9.581e+1
-1.600, -6.151e-5, 2.755e-1, 9.601e+1
-1.620, -6.260e-5, 2.572e-1, 9.621e+1
-1.640, -6.381e-5, 2.693e-1, 9.641e+1
-1.660, -6.517e-5, 2.641e-1, 9.661e+1
-1.680, -6.669e-5, 2.387e-1, 9.681e+1
-1.700, -6.845e-5, 2.439e-1, 9.701e+1
-1.720, -7.040e-5, 2.296e-1, 9.721e+1
-1.740, -7.249e-5, 2.220e-1, 9.741e+1
-1.760, -7.476e-5, 2.191e-1, 9.761e+1
-1.780, -7.718e-5, 2.080e-1, 9.781e+1
-1.800, -7.975e-5, 2.088e-1, 9.801e+1
-1.820, -8.242e-5, 2.113e-1, 9.821e+1
-1.840, -8.509e-5, 2.141e-1, 9.841e+1
-1.860, -8.797e-5, 2.104e-1, 9.861e+1
-1.880, -9.095e-5, 2.273e-1, 9.881e+1
-1.900, -9.427e-5, 2.317e-1, 9.901e+1
-1.920, -9.787e-5, 2.622e-1, 9.921e+1
-1.940, -1.018e-4, 2.965e-1, 9.941e+1
-1.960, -1.062e-4, 3.506e-1, 9.961e+1
-1.980, -1.111e-4, 4.167e-1, 9.981e+1
-2.000, -1.159e-4, 5.066e-1, 1.000e+2
-1.980, -9.819e-5, 3.983e-1, 1.002e+2
-1.960, -8.533e-5, 3.223e-1, 1.004e+2
-1.940, -7.509e-5, 2.889e-1, 1.006e+2
-1.920, -6.671e-5, 2.441e-1, 1.008e+2
-1.900, -6.021e-5, 2.615e-1, 1.010e+2
-1.880, -5.432e-5, 2.417e-1, 1.012e+2
-1.860, -4.936e-5, 2.239e-1, 1.014e+2
-1.840, -4.516e-5, 2.008e-1, 1.016e+2
-1.820, -4.144e-5, 1.887e-1, 1.018e+2
-1.800, -3.831e-5, 1.878e-1, 1.020e+2
-1.780, -3.555e-5, 1.757e-1, 1.022e+2
-1.760, -3.314e-5, 1.741e-1, 1.024e+2
-1.740, -3.100e-5, 1.617e-1, 1.026e+2
-1.720, -2.907e-5, 1.524e-1, 1.028e+2
-1.700, -2.740e-5, 1.499e-1, 1.030e+2
-1.680, -2.576e-5, 1.450e-1, 1.032e+2
-1.660, -2.440e-5, 1.393e-1, 1.034e+2
-1.640, -2.312e-5, 1.317e-1, 1.036e+2
-1.620, -2.184e-5, 1.302e-1, 1.038e+2
-1.600, -2.068e-5, 1.235e-1, 1.040e+2
-1.580, -1.960e-5, 1.177e-1, 1.042e+2
-1.560, -1.860e-5, 1.205e-1, 1.044e+2
-1.540, -1.765e-5, 1.129e-1, 1.046e+2
-1.520, -1.672e-5, 1.101e-1, 1.048e+2
-1.500, -1.581e-5, 1.045e-1, 1.050e+2
-1.480, -1.495e-5, 1.037e-1, 1.052e+2
-1.460, -1.409e-5, 9.918e-2, 1.054e+2
-1.440, -1.328e-5, 9.734e-2, 1.056e+2
-1.420, -1.240e-5, 9.963e-2, 1.058e+2
-1.400, -1.155e-5, 9.577e-2, 1.060e+2
-1.380, -1.076e-5, 9.597e-2, 1.062e+2
-1.360, -1.003e-5, 9.125e-2, 1.064e+2
-1.340, -9.291e-6, 8.486e-2, 1.066e+2
-1.320, -8.607e-6, 8.696e-2, 1.068e+2
-1.300, -7.861e-6, 8.536e-2, 1.070e+2
-1.280, -7.207e-6, 7.894e-2, 1.072e+2
-1.260, -6.569e-6, 7.354e-2, 1.074e+2
-1.240, -5.887e-6, 6.872e-2, 1.076e+2
-1.220, -5.254e-6, 7.294e-2, 1.078e+2
-1.200, -4.573e-6, 6.667e-2, 1.080e+2
-1.180, -3.949e-6, 6.422e-2, 1.082e+2
-1.160, -3.351e-6, 6.469e-2, 1.084e+2
-1.140, -2.781e-6, 5.628e-2, 1.086e+2
-1.120, -2.197e-6, 5.045e-2, 1.088e+2
-1.100, -1.628e-6, 4.966e-2, 1.090e+2
-1.080, -1.081e-6, 5.087e-2, 1.092e+2
-1.060, -4.814e-7, 4.438e-2, 1.094e+2
-1.040, 8.909e-9, 4.818e-2, 1.096e+2
-1.020, 5.319e-7, 4.185e-2, 1.098e+2
-1.000, 9.982e-7, 3.936e-2, 1.100e+2
-0.980, 1.538e-6, 3.892e-2, 1.102e+2
-0.960, 2.031e-6, 3.648e-2, 1.104e+2
-0.940, 2.538e-6, 3.806e-2, 1.106e+2
-0.920, 2.931e-6, 3.347e-2, 1.108e+2
-0.900, 3.386e-6, 2.918e-2, 1.110e+2
-0.880, 3.808e-6, 2.678e-2, 1.112e+2
-0.860, 4.232e-6, 2.618e-2, 1.114e+2
-0.840, 4.664e-6, 2.060e-2, 1.116e+2
-0.820, 5.058e-6, 1.920e-2, 1.118e+2
-0.800, 5.412e-6, 1.909e-2, 1.120e+2
-0.780, 5.832e-6, 1.843e-2, 1.122e+2
-0.760, 6.190e-6, 1.949e-2, 1.124e+2
-0.740, 6.541e-6, 2.037e-2, 1.126e+2
-0.720, 6.868e-6, 1.931e-2, 1.128e+2
-0.700, 7.147e-6, 1.873e-2, 1.130e+2
-0.680, 7.431e-6, 1.957e-2, 1.132e+2
-0.660, 7.651e-6, 1.814e-2, 1.134e+2
-0.640, 7.907e-6, 1.881e-2, 1.136e+2
-0.620, 8.174e-6, 1.865e-2, 1.138e+2
-0.600, 8.398e-6, 1.853e-2, 1.140e+2
-0.580, 8.569e-6, 1.906e-2, 1.142e+2
-0.560, 8.793e-6, 1.876e-2, 1.144e+2
-0.540, 8.968e-6, 1.822e-2, 1.146e+2
-0.520, 9.136e-6, 1.920e-2, 1.148e+2
-0.500, 9.322e-6, 1.952e-2, 1.150e+2
-0.480, 9.514e-6, 1.926e-2, 1.152e+2
-0.460, 9.653e-6, 1.943e-2, 1.154e+2
-0.440, 9.794e-6, 1.939e-2, 1.156e+2
-0.420, 9.950e-6, 1.772e-2, 1.158e+2
-0.400, 1.009e-5, 1.944e-2, 1.160e+2
-0.380, 1.025e-5, 1.889e-2, 1.162e+2
-0.360, 1.033e-5, 1.937e-2, 1.164e+2
-0.340, 1.050e-5, 1.913e-2, 1.166e+2
-0.320, 1.061e-5, 1.866e-2, 1.168e+2
-0.300, 1.074e-5, 1.931e-2, 1.170e+2
-0.280, 1.088e-5, 1.900e-2, 1.172e+2
-0.260, 1.099e-5, 1.856e-2, 1.174e+2
-0.240, 1.111e-5, 1.860e-2, 1.176e+2
-0.220, 1.119e-5, 1.926e-2, 1.178e+2
-0.200, 1.127e-5, 1.858e-2, 1.180e+2
-0.180, 1.142e-5, 1.928e-2, 1.182e+2
-0.160, 1.147e-5, 1.881e-2, 1.184e+2
-0.140, 1.155e-5, 1.853e-2, 1.186e+2
-0.120, 1.163e-5, 1.889e-2, 1.188e+2
-0.100, 1.174e-5, 1.814e-2, 1.190e+2
-0.080, 1.188e-5, 1.879e-2, 1.192e+2
-0.060, 1.193e-5, 1.852e-2, 1.194e+2
-0.040, 1.204e-5, 1.731e-2, 1.196e+2
-0.020, 1.217e-5, 1.765e-2, 1.198e+2
-0.000, 1.214e-5, 1.910e-2, 1.200e+2
-0.020, 1.025e-5, 1.710e-2, 1.202e+2
-0.040, 9.117e-6, 1.737e-2, 1.204e+2
-0.060, 8.276e-6, 1.907e-2, 1.206e+2
-0.080, 7.552e-6, 1.734e-2, 1.208e+2
-0.100, 6.957e-6, 1.772e-2, 1.210e+2
-0.120, 6.454e-6, 1.802e-2, 1.212e+2
-0.140, 5.985e-6, 1.681e-2, 1.214e+2
-0.160, 5.580e-6, 1.716e-2, 1.216e+2
-0.180, 5.152e-6, 1.840e-2, 1.218e+2
-0.200, 4.754e-6, 1.585e-2, 1.220e+2
-0.220, 4.427e-6, 1.752e-2, 1.222e+2
-0.240, 4.056e-6, 1.754e-2, 1.224e+2
-0.260, 3.703e-6, 1.702e-2, 1.226e+2
-0.280, 3.365e-6, 1.780e-2, 1.228e+2
-0.300, 3.020e-6, 1.700e-2, 1.230e+2
-0.320, 2.712e-6, 1.685e-2, 1.232e+2
-0.340, 2.392e-6, 1.677e-2, 1.234e+2
-0.360, 2.040e-6, 1.639e-2, 1.236e+2
-0.380, 1.642e-6, 1.721e-2, 1.238e+2
-0.400, 1.288e-6, 1.837e-2, 1.240e+2
-0.420, 9.090e-7, 1.513e-2, 1.242e+2
-0.440, 5.515e-7, 1.623e-2, 1.244e+2
-0.460, 1.356e-7, 1.676e-2, 1.246e+2
-0.480, -2.630e-7, 1.596e-2, 1.248e+2
-0.500, -6.943e-7, 1.602e-2, 1.250e+2
-0.520, -1.115e-6, 1.600e-2, 1.252e+2
-0.540, -1.583e-6, 1.646e-2, 1.254e+2
-0.560, -1.978e-6, 1.678e-2, 1.256e+2
-0.580, -2.490e-6, 1.644e-2, 1.258e+2
-0.600, -3.048e-6, 1.584e-2, 1.260e+2
-0.620, -3.566e-6, 1.622e-2, 1.262e+2
-0.640, -4.151e-6, 1.604e-2, 1.264e+2
-0.660, -4.717e-6, 1.567e-2, 1.266e+2
-0.680, -5.384e-6, 1.669e-2, 1.268e+2
-0.700, -6.111e-6, 1.567e-2, 1.270e+2
-0.720, -6.888e-6, 1.530e-2, 1.272e+2
-0.740, -7.755e-6, 1.653e-2, 1.274e+2
-0.760, -8.714e-6, 1.590e-2, 1.276e+2
-0.780, -9.762e-6, 1.640e-2, 1.278e+2
-0.800, -1.081e-5, 1.965e-2, 1.280e+2
-0.820, -1.193e-5, 2.121e-2, 1.282e+2
-0.840, -1.305e-5, 2.671e-2, 1.284e+2
-0.860, -1.407e-5, 3.483e-2, 1.286e+2
-0.880, -1.521e-5, 4.199e-2, 1.288e+2
-0.900, -1.627e-5, 5.377e-2, 1.290e+2
-0.920, -1.735e-5, 5.702e-2, 1.292e+2
-0.940, -1.846e-5, 7.367e-2, 1.294e+2
-0.960, -1.957e-5, 8.049e-2, 1.296e+2
-0.980, -2.067e-5, 8.249e-2, 1.298e+2
-1.000, -2.189e-5, 8.875e-2, 1.300e+2
-1.020, -2.311e-5, 9.716e-2, 1.302e+2
-1.040, -2.429e-5, 9.678e-2, 1.304e+2
-1.060, -2.556e-5, 1.033e-1, 1.306e+2
-1.080, -2.687e-5, 1.107e-1, 1.308e+2
-1.100, -2.820e-5, 1.094e-1, 1.310e+2
-1.120, -2.955e-5, 1.169e-1, 1.312e+2
-1.140, -3.107e-5, 1.309e-1, 1.314e+2
-1.160, -3.252e-5, 1.411e-1, 1.316e+2
-1.180, -3.403e-5, 1.539e-1, 1.318e+2
-1.200, -3.554e-5, 1.715e-1, 1.320e+2
-1.220, -3.705e-5, 1.827e-1, 1.322e+2
-1.240, -3.859e-5, 2.037e-1, 1.324e+2
-1.260, -4.008e-5, 2.094e-1, 1.326e+2
-1.280, -4.152e-5, 2.342e-1, 1.328e+2
-1.300, -4.292e-5, 2.523e-1, 1.330e+2
-1.320, -4.429e-5, 2.714e-1, 1.332e+2
-1.340, -4.557e-5, 2.719e-1, 1.334e+2
-1.360, -4.682e-5, 2.889e-1, 1.336e+2
-1.380, -4.804e-5, 3.096e-1, 1.338e+2
-1.400, -4.913e-5, 3.222e-1, 1.340e+2
-1.420, -5.018e-5, 3.260e-1, 1.342e+2
-1.440, -5.118e-5, 3.300e-1, 1.344e+2
-1.460, -5.215e-5, 3.371e-1, 1.346e+2
-1.480, -5.302e-5, 3.382e-1, 1.348e+2
-1.500, -5.388e-5, 3.369e-1, 1.350e+2
-1.520, -5.471e-5, 3.414e-1, 1.352e+2
-1.540, -5.552e-5, 3.470e-1, 1.354e+2
-1.560, -5.634e-5, 3.156e-1, 1.356e+2
-1.580, -5.717e-5, 3.217e-1, 1.358e+2
-1.600, -5.806e-5, 3.207e-1, 1.360e+2
-1.620, -5.896e-5, 3.026e-1, 1.362e+2
-1.640, -5.992e-5, 3.208e-1, 1.364e+2
-1.660, -6.102e-5, 3.117e-1, 1.366e+2
-1.680, -6.221e-5, 3.000e-1, 1.368e+2
-1.700, -6.352e-5, 2.782e-1, 1.370e+2
-1.720, -6.499e-5, 2.697e-1, 1.372e+2
-1.740, -6.656e-5, 2.405e-1, 1.374e+2
-1.760, -6.831e-5, 2.332e-1, 1.376e+2
-1.780, -7.023e-5, 2.233e-1, 1.378e+2
-1.800, -7.235e-5, 2.207e-1, 1.380e+2
-1.820, -7.456e-5, 2.073e-1, 1.382e+2
-1.840, -7.694e-5, 2.126e-1, 1.384e+2
-1.860, -7.940e-5, 2.156e-1, 1.386e+2
-1.880, -8.220e-5, 2.191e-1, 1.388e+2
-1.900, -8.514e-5, 2.379e-1, 1.390e+2
-1.920, -8.853e-5, 2.530e-1, 1.392e+2
-1.940, -9.232e-5, 2.627e-1, 1.394e+2
-1.960, -9.661e-5, 3.101e-1, 1.396e+2
-1.980, -1.012e-4, 3.789e-1, 1.398e+2
-2.000, -1.059e-4, 4.264e-1, 1.400e+2
-1.980, -8.965e-5, 3.414e-1, 1.402e+2
-1.960, -7.797e-5, 2.943e-1, 1.404e+2
-1.940, -6.854e-5, 2.394e-1, 1.406e+2
-1.920, -6.090e-5, 2.245e-1, 1.408e+2
-1.900, -5.457e-5, 2.035e-1, 1.410e+2
-1.880, -4.927e-5, 1.907e-1, 1.412e+2
-1.860, -4.483e-5, 1.886e-1, 1.414e+2
-1.840, -4.097e-5, 1.706e-1, 1.416e+2
-1.820, -3.773e-5, 1.587e-1, 1.418e+2
-1.800, -3.483e-5, 1.608e-1, 1.420e+2
-1.780, -3.234e-5, 1.569e-1, 1.422e+2
-1.760, -3.007e-5, 1.467e-1, 1.424e+2
-1.740, -2.818e-5, 1.450e-1, 1.426e+2
-1.720, -2.638e-5, 1.456e-1, 1.428e+2
-1.700, -2.478e-5, 1.358e-1, 1.430e+2
-1.680, -2.330e-5, 1.253e-1, 1.432e+2
-1.660, -2.194e-5, 1.301e-1, 1.434e+2
-1.640, -2.067e-5, 1.170e-1, 1.436e+2
-1.620, -1.948e-5, 1.230e-1, 1.438e+2
-1.600, -1.837e-5, 1.111e-1, 1.440e+2
-1.580, -1.732e-5, 1.045e-1, 1.442e+2
-1.560, -1.633e-5, 1.000e-1, 1.444e+2
-1.540, -1.540e-5, 1.070e-1, 1.446e+2
-1.520, -1.450e-5, 9.748e-2, 1.448e+2
-1.500, -1.360e-5, 9.754e-2, 1.450e+2
-1.480, -1.275e-5, 1.016e-1, 1.452e+2
-1.460, -1.188e-5, 9.305e-2, 1.454e+2
-1.440, -1.108e-5, 9.399e-2, 1.456e+2
-1.420, -1.026e-5, 8.770e-2, 1.458e+2
-1.400, -9.461e-6, 8.917e-2, 1.460e+2
-1.380, -8.660e-6, 8.865e-2, 1.462e+2
-1.360, -7.912e-6, 8.398e-2, 1.464e+2
-1.340, -7.163e-6, 7.586e-2, 1.466e+2
-1.320, -6.477e-6, 8.126e-2, 1.468e+2
-1.300, -5.889e-6, 7.135e-2, 1.470e+2
-1.280, -5.255e-6, 7.150e-2, 1.472e+2
-1.260, -4.653e-6, 6.968e-2, 1.474e+2
-1.240, -4.052e-6, 6.290e-2, 1.476e+2
-1.220, -3.414e-6, 6.346e-2, 1.478e+2
-1.200, -2.858e-6, 6.124e-2, 1.480e+2
-1.180, -2.255e-6, 5.783e-2, 1.482e+2
-1.160, -1.730e-6, 5.555e-2, 1.484e+2
-1.140, -1.145e-6, 5.105e-2, 1.486e+2
-1.120, -5.405e-7, 5.066e-2, 1.488e+2
-1.100, -3.477e-8, 4.310e-2, 1.490e+2
-1.080, 4.925e-7, 4.329e-2, 1.492e+2
-1.060, 9.761e-7, 4.066e-2, 1.494e+2
-1.040, 1.465e-6, 4.077e-2, 1.496e+2
-1.020, 1.960e-6, 4.055e-2, 1.498e+2
-1.000, 2.458e-6, 3.835e-2, 1.500e+2
-0.980, 2.885e-6, 3.705e-2, 1.502e+2
-0.960, 3.329e-6, 3.751e-2, 1.504e+2
-0.940, 3.748e-6, 3.225e-2, 1.506e+2
-0.920, 4.184e-6, 2.823e-2, 1.508e+2
-0.900, 4.589e-6, 2.954e-2, 1.510e+2
-0.880, 4.967e-6, 2.796e-2, 1.512e+2
-0.860, 5.397e-6, 2.196e-2, 1.514e+2
-0.840, 5.750e-6, 2.251e-2, 1.516e+2
-0.820, 6.120e-6, 1.928e-2, 1.518e+2
-0.800, 6.448e-6, 2.013e-2, 1.520e+2
-0.780, 6.808e-6, 1.891e-2, 1.522e+2
-0.760, 7.087e-6, 1.938e-2, 1.524e+2
-0.740, 7.438e-6, 1.903e-2, 1.526e+2
-0.720, 7.696e-6, 1.920e-2, 1.528e+2
-0.700, 7.949e-6, 1.820e-2, 1.530e+2
-0.680, 8.194e-6, 1.870e-2, 1.532e+2
-0.660, 8.439e-6, 1.790e-2, 1.534e+2
-0.640, 8.671e-6, 1.859e-2, 1.536e+2
-0.620, 8.872e-6, 1.888e-2, 1.538e+2
-0.600, 9.098e-6, 1.769e-2, 1.540e+2
-0.580, 9.276e-6, 1.891e-2, 1.542e+2
-0.560, 9.469e-6, 1.827e-2, 1.544e+2
-0.540, 9.640e-6, 1.753e-2, 1.546e+2
-0.520, 9.773e-6, 1.926e-2, 1.548e+2
-0.500, 9.942e-6, 1.856e-2, 1.550e+2
-0.480, 1.011e-5, 1.785e-2, 1.552e+2
-0.460, 1.023e-5, 1.876e-2, 1.554e+2
-0.440, 1.038e-5, 1.800e-2, 1.556e+2
-0.420, 1.051e-5, 1.813e-2, 1.558e+2
-0.400, 1.065e-5, 1.836e-2, 1.560e+2
-0.380, 1.082e-5, 1.763e-2, 1.562e+2
-0.360, 1.087e-5, 1.806e-2, 1.564e+2
-0.340, 1.101e-5, 1.848e-2, 1.566e+2
-0.320, 1.115e-5, 1.717e-2, 1.568e+2
-0.300, 1.123e-5, 1.850e-2, 1.570e+2
-0.280, 1.134e-5, 1.881e-2, 1.572e+2
-0.260, 1.146e-5, 1.763e-2, 1.574e+2
-0.240, 1.153e-5, 1.873e-2, 1.576e+2
-0.220, 1.165e-5, 1.694e-2, 1.578e+2
-0.200, 1.172e-5, 1.849e-2, 1.580e+2
-0.180, 1.182e-5, 1.751e-2, 1.582e+2
-0.160, 1.190e-5, 1.742e-2, 1.584e+2
-0.140, 1.201e-5, 1.766e-2, 1.586e+2
-0.120, 1.210e-5, 1.754e-2, 1.588e+2
-0.100, 1.220e-5, 1.764e-2, 1.590e+2
-0.080, 1.225e-5, 1.824e-2, 1.592e+2
-0.060, 1.236e-5, 1.731e-2, 1.594e+2
-0.040, 1.247e-5, 1.719e-2, 1.596e+2
-0.020, 1.257e-5, 1.825e-2, 1.598e+2
-0.000, 1.252e-5, 1.739e-2, 1.600e+2
-0.020, 1.072e-5, 1.773e-2, 1.602e+2
-0.040, 9.604e-6, 1.832e-2, 1.604e+2
-0.060, 8.721e-6, 1.766e-2, 1.606e+2
-0.080, 8.063e-6, 1.844e-2, 1.608e+2
-0.100, 7.498e-6, 1.767e-2, 1.610e+2
-0.120, 6.994e-6, 1.725e-2, 1.612e+2
-0.140, 6.528e-6, 1.935e-2, 1.614e+2
-0.160, 6.090e-6, 1.766e-2, 1.616e+2
-0.180, 5.648e-6, 1.706e-2, 1.618e+2
-0.200, 5.288e-6, 1.977e-2, 1.620e+2
-0.220, 4.952e-6, 1.708e-2, 1.622e+2
-0.240, 4.589e-6, 1.725e-2, 1.624e+2
-0.260, 4.268e-6, 1.855e-2, 1.626e+2
-0.280, 3.885e-6, 1.724e-2, 1.628e+2
-0.300, 3.553e-6, 1.799e-2, 1.630e+2
-0.320, 3.245e-6, 1.833e-2, 1.632e+2
-0.340, 2.916e-6, 1.769e-2, 1.634e+2
-0.360, 2.554e-6, 1.814e-2, 1.636e+2
-0.380, 2.210e-6, 1.761e-2, 1.638e+2
-0.400, 1.896e-6, 1.739e-2, 1.640e+2
-0.420, 1.522e-6, 1.811e-2, 1.642e+2
-0.440, 1.148e-6, 1.685e-2, 1.644e+2
-0.460, 7.632e-7, 1.726e-2, 1.646e+2
-0.480, 3.879e-7, 2.289e-2, 1.648e+2
-0.500, 1.629e-8, 1.841e-2, 1.650e+2
-0.520, -3.941e-7, 1.840e-2, 1.652e+2
-0.540, -8.217e-7, 1.834e-2, 1.654e+2
-0.560, -1.265e-6, 1.737e-2, 1.656e+2
-0.580, -1.701e-6, 1.739e-2, 1.658e+2
-0.600, -2.150e-6, 1.752e-2, 1.660e+2
-0.620, -2.626e-6, 1.682e-2, 1.662e+2
-0.640, -3.155e-6, 1.780e-2, 1.664e+2
-0.660, -3.675e-6, 1.794e-2, 1.666e+2
-0.680, -4.241e-6, 1.775e-2, 1.668e+2
-0.700, -4.852e-6, 1.869e-2, 1.670e+2
-0.720, -5.493e-6, 1.673e-2, 1.672e+2
-0.740, -6.162e-6, 1.796e-2, 1.674e+2
-0.760, -6.962e-6, 1.882e-2, 1.676e+2
-0.780, -7.827e-6, 1.777e-2, 1.678e+2
-0.800, -8.744e-6, 2.074e-2, 1.680e+2
-0.820, -9.695e-6, 2.060e-2, 1.682e+2
-0.840, -1.057e-5, 2.511e-2, 1.684e+2
-0.860, -1.156e-5, 2.884e-2, 1.686e+2
-0.880, -1.251e-5, 3.554e-2, 1.688e+2
-0.900, -1.351e-5, 4.435e-2, 1.690e+2
-0.920, -1.443e-5, 5.224e-2, 1.692e+2
-0.940, -1.544e-5, 5.495e-2, 1.694e+2
-0.960, -1.643e-5, 6.362e-2, 1.696e+2
-0.980, -1.747e-5, 6.987e-2, 1.698e+2
-1.000, -1.855e-5, 7.526e-2, 1.700e+2
-1.020, -1.967e-5, 8.521e-2, 1.702e+2
-1.040, -2.079e-5, 8.133e-2, 1.704e+2
-1.060, -2.198e-5, 8.477e-2, 1.706e+2
-1.080, -2.318e-5, 9.750e-2, 1.708e+2
-1.100, -2.444e-5, 1.018e-1, 1.710e+2
-1.120, -2.571e-5, 9.366e-2, 1.712e+2
-1.140, -2.711e-5, 1.083e-1, 1.714e+2
-1.160, -2.849e-5, 1.182e-1, 1.716e+2
-1.180, -2.993e-5, 1.273e-1, 1.718e+2
-1.200, -3.144e-5, 1.443e-1, 1.720e+2
-1.220, -3.299e-5, 1.556e-1, 1.722e+2
-1.240, -3.449e-5, 1.716e-1, 1.724e+2
-1.260, -3.598e-5, 1.865e-1, 1.726e+2
-1.280, -3.755e-5, 2.023e-1, 1.728e+2
-1.300, -3.905e-5, 2.132e-1, 1.730e+2
-1.320, -4.048e-5, 2.360e-1, 1.732e+2
-1.340, -4.186e-5, 2.555e-1, 1.734e+2
-1.360, -4.321e-5, 2.622e-1, 1.736e+2
-1.380, -4.456e-5, 2.725e-1, 1.738e+2
-1.400, -4.587e-5, 2.978e-1, 1.740e+2
-1.420, -4.704e-5, 3.077e-1, 1.742e+2
-1.440, -4.823e-5, 3.182e-1, 1.744e+2
-1.460, -4.930e-5, 3.286e-1, 1.746e+2
-1.480, -5.033e-5, 3.310e-1, 1.748e+2
-1.500, -5.133e-5, 3.355e-1, 1.750e+2
-1.520, -5.226e-5, 3.191e-1, 1.752e+2
-1.540, -5.315e-5, 3.388e-1, 1.754e+2
-1.560, -5.408e-5, 3.237e-1, 1.756e+2
-1.580, -5.496e-5, 3.167e-1, 1.758e+2
-1.600, -5.583e-5, 3.304e-1, 1.760e+2
-1.620, -5.673e-5, 3.247e-1, 1.762e+2
-1.640, -5.770e-5, 3.246e-1, 1.764e+2
-1.660, -5.865e-5, 3.135e-1, 1.766e+2
-1.680, -5.966e-5, 3.157e-1, 1.768e+2
-1.700, -6.084e-5, 2.876e-1, 1.770e+2
-1.720, -6.207e-5, 2.795e-1, 1.772e+2
-1.740, -6.340e-5, 2.710e-1, 1.774e+2
-1.760, -6.485e-5, 2.477e-1, 1.776e+2
-1.780, -6.642e-5, 2.417e-1, 1.778e+2
-1.800, -6.818e-5, 2.266e-1, 1.780e+2
-1.820, -7.010e-5, 2.160e-1, 1.782e+2
-1.840, -7.215e-5, 2.131e-1, 1.784e+2
-1.860, -7.434e-5, 2.012e-1, 1.786e+2
-1.880, -7.694e-5, 2.122e-1, 1.788e+2
-1.900, -7.969e-5, 2.174e-1, 1.790e+2
-1.920, -8.277e-5, 2.245e-1, 1.792e+2
-1.940, -8.623e-5, 2.494e-1, 1.794e+2
-1.960, -9.026e-5, 2.931e-1, 1.796e+2
-1.980, -9.468e-5, 3.320e-1, 1.798e+2
-2.000, -9.914e-5, 3.876e-1, 1.800e+2
-1.980, -8.397e-5, 2.911e-1, 1.802e+2
-1.960, -7.309e-5, 2.530e-1, 1.804e+2
-1.940, -6.440e-5, 2.221e-1, 1.806e+2
-1.920, -5.728e-5, 1.986e-1, 1.808e+2
-1.900, -5.145e-5, 1.825e-1, 1.810e+2
-1.880, -4.651e-5, 1.803e-1, 1.812e+2
-1.860, -4.233e-5, 1.763e-1, 1.814e+2
-1.840, -3.872e-5, 1.597e-1, 1.816e+2
-1.820, -3.563e-5, 1.451e-1, 1.818e+2
-1.800, -3.297e-5, 1.414e-1, 1.820e+2
-1.780, -3.064e-5, 1.409e-1, 1.822e+2
-1.760, -2.852e-5, 1.332e-1, 1.824e+2
-1.740, -2.663e-5, 1.361e-1, 1.826e+2
-1.720, -2.491e-5, 1.306e-1, 1.828e+2
-1.700, -2.338e-5, 1.361e-1, 1.830e+2
-1.680, -2.194e-5, 1.179e-1, 1.832e+2
-1.660, -2.061e-5, 1.060e-1, 1.834e+2
-1.640, -1.942e-5, 1.100e-1, 1.836e+2
-1.620, -1.825e-5, 1.042e-1, 1.838e+2
-1.600, -1.716e-5, 1.042e-1, 1.840e+2
-1.580, -1.609e-5, 1.039e-1, 1.842e+2
-1.560, -1.513e-5, 9.738e-2, 1.844e+2
-1.540, -1.420e-5, 9.478e-2, 1.846e+2
-1.520, -1.335e-5, 9.090e-2, 1.848e+2
-1.500, -1.246e-5, 8.696e-2, 1.850e+2
-1.480, -1.164e-5, 8.575e-2, 1.852e+2
-1.460, -1.080e-5, 8.668e-2, 1.854e+2
-1.440, -9.987e-6, 8.506e-2, 1.856e+2
-1.420, -9.219e-6, 7.816e-2, 1.858e+2
-1.400, -8.394e-6, 7.857e-2, 1.860e+2
-1.380, -7.618e-6, 7.388e-2, 1.862e+2
-1.360, -6.868e-6, 7.163e-2, 1.864e+2
-1.340, -6.155e-6, 7.119e-2, 1.866e+2
-1.320, -5.513e-6, 6.774e-2, 1.868e+2
-1.300, -4.838e-6, 6.495e-2, 1.870e+2
-1.280, -4.295e-6, 6.485e-2, 1.872e+2
-1.260, -3.662e-6, 5.643e-2, 1.874e+2
-1.240, -3.068e-6, 6.072e-2, 1.876e+2
-1.220, -2.446e-6, 5.548e-2, 1.878e+2
-1.200, -1.914e-6, 4.939e-2, 1.880e+2
-1.180, -1.265e-6, 4.902e-2, 1.882e+2
-1.160, -7.324e-7, 4.522e-2, 1.884e+2
-1.140, -1.769e-7, 4.217e-2, 1.886e+2
-1.120, 3.467e-7, 4.330e-2, 1.888e+2
-1.100, 8.573e-7, 3.860e-2, 1.890e+2
-1.080, 1.361e-6, 3.757e-2, 1.892e+2
-1.060, 1.829e-6, 3.785e-2, 1.894e+2
-1.040, 2.316e-6, 3.458e-2, 1.896e+2
-1.020, 2.751e-6, 3.280e-2, 1.898e+2
-1.000, 3.184e-6, 3.278e-2, 1.900e+2
-0.980, 3.620e-6, 3.174e-2, 1.902e+2
-0.960, 4.105e-6, 2.905e-2, 1.904e+2
-0.940, 4.517e-6, 2.736e-2, 1.906e+2
-0.920, 4.863e-6, 2.511e-2, 1.908e+2
-0.900, 5.278e-6, 2.266e-2, 1.910e+2
-0.880, 5.623e-6, 2.049e-2, 1.912e+2
-0.860, 6.001e-6, 1.839e-2, 1.914e+2
-0.840, 6.365e-6, 1.823e-2, 1.916e+2
-0.820, 6.716e-6, 1.628e-2, 1.918e+2
-0.800, 7.080e-6, 1.769e-2, 1.920e+2
-0.780, 7.347e-6, 1.600e-2, 1.922e+2
-0.760, 7.662e-6, 1.634e-2, 1.924e+2
-0.740, 7.937e-6, 1.675e-2, 1.926e+2
-0.720, 8.185e-6, 1.559e-2, 1.928e+2
-0.700, 8.438e-6, 1.617e-2, 1.930e+2
-0.680, 8.669e-6, 1.599e-2, 1.932e+2
-0.660, 8.922e-6, 1.525e-2, 1.934e+2
-0.640, 9.154e-6, 1.615e-2, 1.936e+2
-0.620, 9.375e-6, 1.578e-2, 1.938e+2
-0.600, 9.516e-6, 1.616e-2, 1.940e+2
-0.580, 9.704e-6, 1.673e-2, 1.942e+2
-0.560, 9.885e-6, 1.515e-2, 1.944e+2
-0.540, 1.003e-5, 1.568e-2, 1.946e+2
-0.520, 1.019e-5, 1.622e-2, 1.948e+2
-0.500, 1.039e-5, 1.593e-2, 1.950e+2
-0.480, 1.050e-5, 1.651e-2, 1.952e+2
-0.460, 1.064e-5, 1.523e-2, 1.954e+2
-0.440, 1.075e-5, 1.523e-2, 1.956e+2
-0.420, 1.089e-5, 1.588e-2, 1.958e+2
-0.400, 1.106e-5, 1.830e-2, 1.960e+2
-0.380, 1.117e-5, 1.517e-2, 1.962e+2
-0.360, 1.125e-5, 1.552e-2, 1.964e+2
-0.340, 1.138e-5, 1.502e-2, 1.966e+2
-0.320, 1.146e-5, 1.614e-2, 1.968e+2
-0.300, 1.155e-5, 1.555e-2, 1.970e+2
-0.280, 1.168e-5, 1.494e-2, 1.972e+2
-0.260, 1.180e-5, 1.674e-2, 1.974e+2
-0.240, 1.189e-5, 1.469e-2, 1.976e+2
-0.220, 1.197e-5, 1.520e-2, 1.978e+2
-0.200, 1.205e-5, 1.589e-2, 1.980e+2
-0.180, 1.211e-5, 1.429e-2, 1.982e+2
-0.160, 1.220e-5, 1.553e-2, 1.984e+2
-0.140, 1.232e-5, 1.570e-2, 1.986e+2
-0.120, 1.238e-5, 1.446e-2, 1.988e+2
-0.100, 1.246e-5, 1.628e-2, 1.990e+2
-0.080, 1.261e-5, 1.540e-2, 1.992e+2
-0.060, 1.268e-5, 1.575e-2, 1.994e+2
-0.040, 1.274e-5, 1.646e-2, 1.996e+2
-0.020, 1.286e-5, 1.425e-2, 1.998e+2
-0.000, 1.279e-5, 1.575e-2, 2.000e+2
-0.020, 1.098e-5, 1.551e-2, 2.002e+2
-0.040, 9.926e-6, 1.467e-2, 2.004e+2
-0.060, 9.159e-6, 1.560e-2, 2.006e+2
-0.080, 8.449e-6, 1.526e-2, 2.008e+2
-0.100, 7.846e-6, 1.574e-2, 2.010e+2
-0.120, 7.361e-6, 1.756e-2, 2.012e+2
-0.140, 6.910e-6, 1.480e-2, 2.014e+2
-0.160, 6.445e-6, 1.592e-2, 2.016e+2
-0.180, 6.038e-6, 1.516e-2, 2.018e+2
-0.200, 5.640e-6, 1.399e-2, 2.020e+2
-0.220, 5.273e-6, 1.573e-2, 2.022e+2
-0.240, 4.968e-6, 1.473e-2, 2.024e+2
-0.260, 4.603e-6, 1.533e-2, 2.026e+2
-0.280, 4.269e-6, 1.537e-2, 2.028e+2
-0.300, 3.923e-6, 1.467e-2, 2.030e+2
-0.320, 3.591e-6, 1.665e-2, 2.032e+2
-0.340, 3.283e-6, 1.628e-2, 2.034e+2
-0.360, 2.932e-6, 1.495e-2, 2.036e+2
-0.380, 2.562e-6, 2.117e-2, 2.038e+2
-0.400, 2.242e-6, 1.586e-2, 2.040e+2
-0.420, 1.899e-6, 1.552e-2, 2.042e+2
-0.440, 1.480e-6, 1.593e-2, 2.044e+2
-0.460, 1.135e-6, 1.461e-2, 2.046e+2
-0.480, 7.546e-7, 1.675e-2, 2.048e+2
-0.500, 4.125e-7, 1.524e-2, 2.050e+2
-0.520, 1.198e-8, 1.422e-2, 2.052e+2
-0.540, -3.855e-7, 1.573e-2, 2.054e+2
-0.560, -7.989e-7, 1.570e-2, 2.056e+2
-0.580, -1.241e-6, 1.463e-2, 2.058e+2
-0.600, -1.652e-6, 1.624e-2, 2.060e+2
-0.620, -2.134e-6, 1.497e-2, 2.062e+2
-0.640, -2.603e-6, 1.628e-2, 2.064e+2
-0.660, -3.105e-6, 1.643e-2, 2.066e+2
-0.680, -3.607e-6, 1.500e-2, 2.068e+2
-0.700, -4.186e-6, 1.566e-2, 2.070e+2
-0.720, -4.754e-6, 1.621e-2, 2.072e+2
-0.740, -5.427e-6, 1.759e-2, 2.074e+2
-0.760, -6.107e-6, 1.585e-2, 2.076e+2
-0.780, -6.867e-6, 1.653e-2, 2.078e+2
-0.800, -7.679e-6, 1.609e-2, 2.080e+2
-0.820, -8.547e-6, 1.938e-2, 2.082e+2
-0.840, -9.474e-6, 2.035e-2, 2.084e+2
-0.860, -1.033e-5, 2.609e-2, 2.086e+2
-0.880, -1.121e-5, 3.095e-2, 2.088e+2
-0.900, -1.207e-5, 3.488e-2, 2.090e+2
-0.920, -1.297e-5, 4.761e-2, 2.092e+2
-0.940, -1.394e-5, 4.812e-2, 2.094e+2
-0.960, -1.492e-5, 5.647e-2, 2.096e+2
-0.980, -1.593e-5, 6.329e-2, 2.098e+2
-1.000, -1.691e-5, 6.233e-2, 2.100e+2
-1.020, -1.795e-5, 6.947e-2, 2.102e+2
-1.040, -1.909e-5, 6.845e-2, 2.104e+2
-1.060, -2.020e-5, 7.281e-2, 2.106e+2
-1.080, -2.141e-5, 7.772e-2, 2.108e+2
-1.100, -2.264e-5, 8.220e-2, 2.110e+2
-1.120, -2.391e-5, 8.481e-2, 2.112e+2
-1.140, -2.518e-5, 9.455e-2, 2.114e+2
-1.160, -2.651e-5, 9.769e-2, 2.116e+2
-1.180, -2.797e-5, 1.128e-1, 2.118e+2
-1.200, -2.939e-5, 1.216e-1, 2.120e+2
-1.220, -3.096e-5, 1.343e-1, 2.122e+2
-1.240, -3.249e-5, 1.476e-1, 2.124e+2
-1.260, -3.402e-5, 1.670e-1, 2.126e+2
-1.280, -3.557e-5, 1.845e-1, 2.128e+2
-1.300, -3.707e-5, 1.941e-1, 2.130e+2
-1.320, -3.859e-5, 2.089e-1, 2.132e+2
-1.340, -4.006e-5, 2.271e-1, 2.134e+2
-1.360, -4.147e-5, 2.449e-1, 2.136e+2
-1.380, -4.290e-5, 2.541e-1, 2.138e+2
-1.400, -4.427e-5, 2.751e-1, 2.140e+2
-1.420, -4.556e-5, 2.783e-1, 2.142e+2
-1.440, -4.679e-5, 3.009e-1, 2.144e+2
-1.460, -4.802e-5, 3.098e-1, 2.146e+2
-1.480, -4.910e-5, 3.157e-1, 2.148e+2
-1.500, -5.019e-5, 3.352e-1, 2.150e+2
-1.520, -5.124e-5, 3.317e-1, 2.152e+2
-1.540, -5.221e-5, 3.260e-1, 2.154e+2
-1.560, -5.315e-5, 3.242e-1, 2.156e+2
-1.580, -5.402e-5, 3.252e-1, 2.158e+2
-1.600, -5.491e-5, 3.107e-1, 2.160e+2
-1.620, -5.584e-5, 3.257e-1, 2.162e+2
-1.640, -5.671e-5, 3.069e-1, 2.164e+2
-1.660, -5.770e-5, 3.167e-1, 2.166e+2
-1.680, -5.863e-5, 3.146e-1, 2.168e+2
-1.700, -5.964e-5, 2.952e-1, 2.170e+2
-1.720, -6.073e-5, 2.762e-1, 2.172e+2
-1.740, -6.193e-5, 2.508e-1, 2.174e+2
-1.760, -6.326e-5, 2.375e-1, 2.176e+2
-1.780, -6.467e-5, 2.308e-1, 2.178e+2
-1.800, -6.619e-5, 2.179e-1, 2.180e+2
-1.820, -6.788e-5, 2.115e-1, 2.182e+2
-1.840, -6.968e-5, 1.999e-1, 2.184e+2
-1.860, -7.173e-5, 1.898e-1, 2.186e+2
-1.880, -7.397e-5, 1.966e-1, 2.188e+2
-1.900, -7.647e-5, 1.997e-1, 2.190e+2
-1.920, -7.928e-5, 2.128e-1, 2.192e+2
-1.940, -8.264e-5, 2.369e-1, 2.194e+2
-1.960, -8.633e-5, 2.493e-1, 2.196e+2
-1.980, -9.054e-5, 2.848e-1, 2.198e+2
-2.000, -9.485e-5, 3.387e-1, 2.200e+2
-1.980, -8.041e-5, 2.631e-1, 2.202e+2
-1.960, -7.014e-5, 2.163e-1, 2.204e+2
-1.940, -6.195e-5, 1.965e-1, 2.206e+2
-1.920, -5.520e-5, 1.724e-1, 2.208e+2
-1.900, -4.961e-5, 1.708e-1, 2.210e+2
-1.880, -4.491e-5, 1.623e-1, 2.212e+2
-1.860, -4.092e-5, 1.439e-1, 2.214e+2
-1.840, -3.751e-5, 1.458e-1, 2.216e+2
-1.820, -3.454e-5, 1.351e-1, 2.218e+2
-1.800, -3.197e-5, 1.276e-1, 2.220e+2
-1.780, -2.966e-5, 1.313e-1, 2.222e+2
-1.760, -2.765e-5, 1.199e-1, 2.224e+2
-1.740, -2.580e-5, 1.139e-1, 2.226e+2
-1.720, -2.415e-5, 1.107e-1, 2.228e+2
-1.700, -2.265e-5, 1.152e-1, 2.230e+2
-1.680, -2.124e-5, 1.105e-1, 2.232e+2
-1.660, -1.988e-5, 1.071e-1, 2.234e+2
-1.640, -1.871e-5, 9.833e-2, 2.236e+2
-1.620, -1.756e-5, 9.914e-2, 2.238e+2
-1.600, -1.653e-5, 9.530e-2, 2.240e+2
-1.580, -1.547e-5, 9.757e-2, 2.242e+2
-1.560, -1.448e-5, 8.354e-2, 2.244e+2
-1.540, -1.355e-5, 8.441e-2, 2.246e+2
-1.520, -1.269e-5, 8.601e-2, 2.248e+2
-1.500, -1.182e-5, 8.332e-2, 2.250e+2
-1.480, -1.102e-5, 7.640e-2, 2.252e+2
-1.460, -1.021e-5, 7.617e-2, 2.254e+2
-1.440, -9.456e-6, 7.028e-2, 2.256e+2
-1.420, -8.622e-6, 6.968e-2, 2.258e+2
-1.400, -7.808e-6, 7.302e-2, 2.260e+2
-1.380, -7.054e-6, 6.625e-2, 2.262e+2
-1.360, -6.339e-6, 6.632e-2, 2.264e+2
-1.340, -5.636e-6, 6.624e-2, 2.266e+2
-1.320, -5.051e-6, 6.092e-2, 2.268e+2
-1.300, -4.400e-6, 5.860e-2, 2.270e+2
-1.280, -3.774e-6, 5.578e-2, 2.272e+2
-1.260, -3.195e-6, 5.363e-2, 2.274e+2
-1.240, -2.584e-6, 4.622e-2, 2.276e+2
-1.220, -1.996e-6, 4.863e-2, 2.278e+2
-1.200, -1.475e-6, 4.766e-2, 2.280e+2
-1.180, -9.041e-7, 4.661e-2, 2.282e+2
-1.160, -3.319e-7, 4.033e-2, 2.284e+2
-1.140, 1.953e-7, 3.895e-2, 2.286e+2
-1.120, 6.820e-7, 3.781e-2, 2.288e+2
-1.100, 1.226e-6, 3.575e-2, 2.290e+2
-1.080, 1.704e-6, 3.218e-2, 2.292e+2
-1.060, 2.205e-6, 3.838e-2, 2.294e+2
-1.040, 2.661e-6, 3.219e-2, 2.296e+2
-1.020, 3.121e-6, 2.909e-2, 2.298e+2
-1.000, 3.542e-6, 2.927e-2, 2.300e+2
-0.980, 3.993e-6, 2.802e-2, 2.302e+2
-0.960, 4.437e-6, 2.248e-2, 2.304e+2
-0.940, 4.840e-6, 2.548e-2, 2.306e+2
-0.920, 5.237e-6, 2.181e-2, 2.308e+2
-0.900, 5.588e-6, 1.993e-2, 2.310e+2
-0.880, 5.952e-6, 1.932e-2, 2.312e+2
-0.860, 6.325e-6, 1.784e-2, 2.314e+2
-0.840, 6.664e-6, 1.690e-2, 2.316e+2
-0.820, 7.024e-6, 1.499e-2, 2.318e+2
-0.800, 7.295e-6, 1.552e-2, 2.320e+2
-0.780, 7.627e-6, 1.688e-2, 2.322e+2
-0.760, 7.896e-6, 1.452e-2, 2.324e+2
-0.740, 8.166e-6, 1.542e-2, 2.326e+2
-0.720, 8.449e-6, 1.579e-2, 2.328e+2
-0.700, 8.684e-6, 1.471e-2, 2.330e+2
-0.680, 8.914e-6, 1.547e-2, 2.332e+2
-0.660, 9.138e-6, 1.497e-2, 2.334e+2
-0.640, 9.348e-6, 1.620e-2, 2.336e+2
-0.620, 9.610e-6, 1.561e-2, 2.338e+2
-0.600, 9.746e-6, 1.536e-2, 2.340e+2
-0.580, 9.928e-6, 1.531e-2, 2.342e+2
-0.560, 1.011e-5, 1.463e-2, 2.344e+2
-0.540, 1.026e-5, 1.522e-2, 2.346e+2
-0.520, 1.047e-5, 1.653e-2, 2.348e+2
-0.500, 1.060e-5, 1.482e-2, 2.350e+2
-0.480, 1.071e-5, 1.515e-2, 2.352e+2
-0.460, 1.083e-5, 1.544e-2, 2.354e+2
-0.440, 1.095e-5, 1.468e-2, 2.356e+2
-0.420, 1.110e-5, 1.581e-2, 2.358e+2
-0.400, 1.121e-5, 1.462e-2, 2.360e+2
-0.380, 1.136e-5, 1.588e-2, 2.362e+2
-0.360, 1.145e-5, 1.707e-2, 2.364e+2
-0.340, 1.157e-5, 1.501e-2, 2.366e+2
-0.320, 1.165e-5, 1.631e-2, 2.368e+2
-0.300, 1.177e-5, 1.592e-2, 2.370e+2
-0.280, 1.189e-5, 1.494e-2, 2.372e+2
-0.260, 1.198e-5, 1.605e-2, 2.374e+2
-0.240, 1.206e-5, 1.516e-2, 2.376e+2
-0.220, 1.216e-5, 1.560e-2, 2.378e+2
-0.200, 1.224e-5, 1.579e-2, 2.380e+2
-0.180, 1.231e-5, 1.478e-2, 2.382e+2
-0.160, 1.238e-5, 1.572e-2, 2.384e+2
-0.140, 1.249e-5, 1.559e-2, 2.386e+2
-0.120, 1.258e-5, 1.504e-2, 2.388e+2
-0.100, 1.265e-5, 1.632e-2, 2.390e+2
-0.080, 1.273e-5, 1.603e-2, 2.392e+2
-0.060, 1.283e-5, 1.639e-2, 2.394e+2
-0.040, 1.291e-5, 1.603e-2, 2.396e+2
-0.020, 1.301e-5, 1.527e-2, 2.398e+2
-0.000, 1.297e-5, 1.657e-2, 2.400e+2
-0.020, 1.118e-5, 1.611e-2, 2.402e+2
-0.040, 1.016e-5, 1.539e-2, 2.404e+2
-0.060, 9.359e-6, 1.626e-2, 2.406e+2
-0.080, 8.661e-6, 1.649e-2, 2.408e+2
-0.100, 8.078e-6, 1.647e-2, 2.410e+2
-0.120, 7.545e-6, 1.642e-2, 2.412e+2
-0.140, 7.089e-6, 1.565e-2, 2.414e+2
-0.160, 6.669e-6, 1.667e-2, 2.416e+2
-0.180, 6.295e-6, 1.620e-2, 2.418e+2
-0.200, 5.887e-6, 1.673e-2, 2.420e+2
-0.220, 5.507e-6, 1.764e-2, 2.422e+2
-0.240, 5.160e-6, 1.576e-2, 2.424e+2
-0.260, 4.792e-6, 1.712e-2, 2.426e+2
-0.280, 4.473e-6, 1.681e-2, 2.428e+2
-0.300, 4.146e-6, 1.605e-2, 2.430e+2
-0.320, 3.817e-6, 1.742e-2, 2.432e+2
-0.340, 3.457e-6, 1.628e-2, 2.434e+2
-0.360, 3.134e-6, 1.655e-2, 2.436e+2
-0.380, 2.798e-6, 1.672e-2, 2.438e+2
-0.400, 2.507e-6, 1.702e-2, 2.440e+2
-0.420, 2.139e-6, 1.786e-2, 2.442e+2
-0.440, 1.809e-6, 1.740e-2, 2.444e+2
-0.460, 1.441e-6, 1.710e-2, 2.446e+2
-0.480, 1.070e-6, 1.739e-2, 2.448e+2
-0.500, 6.967e-7, 1.754e-2, 2.450e+2
-0.520, 3.134e-7, 1.746e-2, 2.452e+2
-0.540, 8.293e-9, 1.809e-2, 2.454e+2
-0.560, -3.867e-7, 1.757e-2, 2.456e+2
-0.580, -8.223e-7, 1.801e-2, 2.458e+2
-0.600, -1.223e-6, 1.763e-2, 2.460e+2
-0.620, -1.650e-6, 1.830e-2, 2.462e+2
-0.640, -2.090e-6, 1.827e-2, 2.464e+2
-0.660, -2.544e-6, 1.740e-2, 2.466e+2
-0.680, -3.052e-6, 1.840e-2, 2.468e+2
-0.700, -3.542e-6, 1.880e-2, 2.470e+2
-0.720, -4.076e-6, 1.789e-2, 2.472e+2
-0.740, -4.631e-6, 1.864e-2, 2.474e+2
-0.760, -5.285e-6, 1.905e-2, 2.476e+2
-0.780, -5.927e-6, 1.828e-2, 2.478e+2
-0.800, -6.651e-6, 2.002e-2, 2.480e+2
-0.820, -7.398e-6, 2.071e-2, 2.482e+2
-0.840, -8.187e-6, 2.169e-2, 2.484e+2
-0.860, -9.023e-6, 2.675e-2, 2.486e+2
-0.880, -9.820e-6, 2.828e-2, 2.488e+2
-0.900, -1.062e-5, 3.593e-2, 2.490e+2
-0.920, -1.144e-5, 4.025e-2, 2.492e+2
-0.940, -1.230e-5, 4.700e-2, 2.494e+2
-0.960, -1.320e-5, 4.857e-2, 2.496e+2
-0.980, -1.412e-5, 5.871e-2, 2.498e+2
-1.000, -1.507e-5, 6.428e-2, 2.500e+2
-1.020, -1.604e-5, 6.001e-2, 2.502e+2
-1.040, -1.703e-5, 6.595e-2, 2.504e+2
-1.060, -1.809e-5, 6.941e-2, 2.506e+2
-1.080, -1.918e-5, 7.112e-2, 2.508e+2
-1.100, -2.033e-5, 7.380e-2, 2.510e+2
-1.120, -2.150e-5, 7.790e-2, 2.512e+2
-1.140, -2.274e-5, 8.481e-2, 2.514e+2
-1.160, -2.402e-5, 9.311e-2, 2.516e+2
-1.180, -2.529e-5, 1.044e-1, 2.518e+2
-1.200, -2.672e-5, 1.112e-1, 2.520e+2
-1.220, -2.809e-5, 1.214e-1, 2.522e+2
-1.240, -2.956e-5, 1.334e-1, 2.524e+2
-1.260, -3.103e-5, 1.505e-1, 2.526e+2
-1.280, -3.257e-5, 1.556e-1, 2.528e+2
-1.300, -3.406e-5, 1.674e-1, 2.530e+2
-1.320, -3.550e-5, 1.862e-1, 2.532e+2
-1.340, -3.702e-5, 1.943e-1, 2.534e+2
-1.360, -3.845e-5, 2.166e-1, 2.535e+2
-1.380, -3.988e-5, 2.359e-1, 2.537e+2
-1.400, -4.122e-5, 2.429e-1, 2.539e+2
-1.420, -4.254e-5, 2.581e-1, 2.541e+2
-1.440, -4.385e-5, 2.706e-1, 2.543e+2
-1.460, -4.517e-5, 2.796e-1, 2.545e+2
-1.480, -4.634e-5, 2.927e-1, 2.547e+2
-1.500, -4.754e-5, 3.064e-1, 2.549e+2
-1.520, -4.864e-5, 3.209e-1, 2.551e+2
-1.540, -4.963e-5, 3.247e-1, 2.553e+2
-1.560, -5.063e-5, 3.126e-1, 2.555e+2
-1.580, -5.164e-5, 3.151e-1, 2.557e+2
-1.600, -5.258e-5, 3.113e-1, 2.559e+2
-1.620, -5.353e-5, 3.027e-1, 2.561e+2
-1.637, -5.436e-5, 3.188e-1, 2.563e+2