File: data/FL/FL/2023.4.27/9号b-cds 虾.txt
Apr. 27, 2023   12:52:39
Cyclic Voltammetry
File: 9Data Source:  Experiment
Instrument Model:  CHI660E
Ref. Electrode: Ag/AgCl
Header:
Note:

Init E (V) = 0
High E (V) = 0
Low E (V) = -2
Init P/N = N
Scan Rate (V/s) = 0.1
Segment = 40
Sample Interval (V) = 0.001
Quiet Time (sec) = 5
Sensitivity (A/V) = 0.001

Segment 1:
Ep = -1.961V
ip = -7.420e-6A
Ah = -3.013e-6C

Segment 2:

Segment 3:
Ep = -1.587V
ip = -1.396e-6A
Ah = -6.643e-7C

Segment 4:

Segment 5:
Ep = -1.609V
ip = -2.443e-6A
Ah = -1.830e-6C

Segment 6:

Segment 7:
Ep = -1.619V
ip = -3.528e-6A
Ah = -2.943e-6C

Segment 8:

Segment 9:

Segment 10:

Segment 11:

Segment 12:

Segment 13:

Segment 14:

Segment 15:

Segment 16:

Segment 17:

Segment 18:

Segment 19:

Segment 20:

Segment 21:

Segment 22:

Segment 23:

Segment 24:

Segment 25:

Segment 26:

Segment 27:

Segment 28:

Segment 29:

Segment 30:

Segment 31:

Segment 32:

Segment 33:

Segment 34:

Segment 35:

Segment 36:

Segment 37:

Segment 38:

Segment 39:

Segment 40:

Potential/V, Current/A, Voltage/V, Time/s

0.000, 9.566e-8, 2.369e-2, 1.000e-2
-0.061, -2.636e-7, 2.253e-2, 6.200e-1
-0.122, -4.925e-7, 2.336e-2, 1.230e+0
-0.183, -9.404e-7, 2.128e-2, 1.840e+0
-0.244, -1.384e-6, 2.202e-2, 2.450e+0
-0.305, -2.078e-6, 2.464e-2, 3.060e+0
-0.366, -2.897e-6, 2.439e-2, 3.670e+0
-0.427, -4.077e-6, 2.248e-2, 4.280e+0
-0.488, -5.700e-6, 2.234e-2, 4.890e+0
-0.549, -8.206e-6, 2.224e-2, 5.500e+0
-0.610, -1.199e-5, 2.351e-2, 6.110e+0
-0.671, -1.779e-5, 2.315e-2, 6.720e+0
-0.732, -2.603e-5, 2.146e-2, 7.330e+0
-0.793, -3.752e-5, 2.236e-2, 7.940e+0
-0.854, -5.163e-5, 2.080e-2, 8.550e+0
-0.915, -6.894e-5, 2.647e-2, 9.160e+0
-0.976, -9.147e-5, 2.398e-2, 9.770e+0
-1.037, -1.199e-4, 3.092e-2, 1.038e+1
-1.098, -1.543e-4, 2.529e-2, 1.099e+1
-1.159, -1.938e-4, 3.043e-2, 1.160e+1
-1.220, -2.367e-4, 2.819e-2, 1.221e+1
-1.281, -2.799e-4, 3.313e-2, 1.282e+1
-1.342, -3.240e-4, 3.130e-2, 1.343e+1
-1.403, -3.653e-4, 3.584e-2, 1.404e+1
-1.464, -3.814e-4, 3.323e-2, 1.465e+1
-1.525, -3.786e-4, 4.451e-2, 1.526e+1
-1.586, -3.677e-4, 6.251e-2, 1.587e+1
-1.647, -3.376e-4, 1.026e-1, 1.648e+1
-1.708, -3.047e-4, 1.437e-1, 1.709e+1
-1.769, -2.829e-4, 1.599e-1, 1.770e+1
-1.830, -2.705e-4, 2.017e-1, 1.831e+1
-1.891, -2.683e-4, 2.199e-1, 1.892e+1
-1.952, -2.750e-4, 2.335e-1, 1.953e+1
-1.987, -2.590e-4, 2.221e-1, 2.014e+1
-1.926, -2.277e-4, 1.599e-1, 2.075e+1
-1.865, -2.106e-4, 1.332e-1, 2.136e+1
-1.804, -1.985e-4, 1.074e-1, 2.197e+1
-1.743, -1.892e-4, 8.538e-2, 2.258e+1
-1.682, -1.814e-4, 6.740e-2, 2.319e+1
-1.621, -1.740e-4, 4.097e-2, 2.380e+1
-1.560, -1.668e-4, 3.299e-2, 2.441e+1
-1.499, -1.598e-4, 2.635e-2, 2.502e+1
-1.438, -1.525e-4, 2.809e-2, 2.563e+1
-1.377, -1.445e-4, 2.413e-2, 2.624e+1
-1.316, -1.356e-4, 2.615e-2, 2.685e+1
-1.255, -1.260e-4, 2.186e-2, 2.746e+1
-1.194, -1.155e-4, 3.333e-2, 2.807e+1
-1.133, -1.040e-4, 2.410e-2, 2.868e+1
-1.072, -9.178e-5, 2.476e-2, 2.929e+1
-1.011, -7.925e-5, 2.247e-2, 2.990e+1
-0.950, -6.652e-5, 2.197e-2, 3.051e+1
-0.889, -5.447e-5, 2.132e-2, 3.112e+1
-0.828, -4.314e-5, 2.285e-2, 3.173e+1
-0.767, -3.326e-5, 2.336e-2, 3.234e+1
-0.706, -2.489e-5, 2.035e-2, 3.295e+1
-0.645, -1.805e-5, 2.256e-2, 3.356e+1
-0.584, -1.265e-5, 2.118e-2, 3.417e+1
-0.523, -8.799e-6, 2.098e-2, 3.478e+1
-0.462, -6.051e-6, 1.878e-2, 3.539e+1
-0.401, -4.165e-6, 2.293e-2, 3.600e+1
-0.340, -2.726e-6, 2.007e-2, 3.661e+1
-0.279, -1.661e-6, 2.339e-2, 3.722e+1
-0.218, -7.491e-7, 1.843e-2, 3.783e+1
-0.157, -4.400e-8, 2.318e-2, 3.844e+1
-0.096, 5.202e-7, 1.902e-2, 3.905e+1
-0.035, 9.810e-7, 2.360e-2, 3.966e+1
-0.026, 6.155e-7, 2.092e-2, 4.027e+1
-0.087, -7.784e-8, 2.191e-2, 4.088e+1
-0.148, -8.137e-7, 2.128e-2, 4.149e+1
-0.209, -1.525e-6, 2.264e-2, 4.210e+1
-0.270, -2.547e-6, 2.130e-2, 4.271e+1
-0.331, -3.578e-6, 2.482e-2, 4.332e+1
-0.392, -5.016e-6, 2.087e-2, 4.393e+1
-0.453, -6.775e-6, 2.358e-2, 4.454e+1
-0.514, -9.420e-6, 2.143e-2, 4.515e+1
-0.575, -1.298e-5, 2.130e-2, 4.576e+1
-0.636, -1.857e-5, 2.193e-2, 4.637e+1
-0.697, -2.579e-5, 1.994e-2, 4.698e+1
-0.758, -3.518e-5, 2.032e-2, 4.759e+1
-0.819, -4.688e-5, 2.019e-2, 4.820e+1
-0.880, -6.109e-5, 2.430e-2, 4.881e+1
-0.941, -7.784e-5, 1.999e-2, 4.942e+1
-1.002, -9.708e-5, 2.213e-2, 5.003e+1
-1.063, -1.183e-4, 1.968e-2, 5.064e+1
-1.124, -1.405e-4, 2.127e-2, 5.125e+1
-1.185, -1.626e-4, 1.981e-2, 5.186e+1
-1.246, -1.830e-4, 2.585e-2, 5.247e+1
-1.307, -2.013e-4, 2.105e-2, 5.308e+1
-1.368, -2.178e-4, 2.658e-2, 5.369e+1
-1.429, -2.281e-4, 2.894e-2, 5.430e+1
-1.490, -2.312e-4, 3.402e-2, 5.491e+1
-1.551, -2.344e-4, 3.535e-2, 5.552e+1
-1.612, -2.347e-4, 8.380e-2, 5.613e+1
-1.673, -2.204e-4, 1.418e-1, 5.674e+1
-1.734, -2.061e-4, 1.565e-1, 5.735e+1
-1.795, -1.973e-4, 1.692e-1, 5.796e+1
-1.856, -1.932e-4, 1.873e-1, 5.857e+1
-1.917, -1.935e-4, 1.877e-1, 5.918e+1
-1.978, -1.953e-4, 2.113e-1, 5.979e+1
-1.961, -1.785e-4, 1.627e-1, 6.040e+1
-1.900, -1.638e-4, 1.281e-1, 6.101e+1
-1.839, -1.545e-4, 1.028e-1, 6.162e+1
-1.778, -1.474e-4, 7.883e-2, 6.223e+1
-1.717, -1.417e-4, 6.208e-2, 6.284e+1
-1.656, -1.363e-4, 4.828e-2, 6.345e+1
-1.595, -1.308e-4, 3.436e-2, 6.406e+1
-1.534, -1.255e-4, 2.744e-2, 6.467e+1
-1.473, -1.207e-4, 2.486e-2, 6.528e+1
-1.412, -1.153e-4, 2.371e-2, 6.589e+1
-1.351, -1.093e-4, 2.251e-2, 6.650e+1
-1.290, -1.025e-4, 2.168e-2, 6.711e+1
-1.229, -9.511e-5, 2.232e-2, 6.772e+1
-1.168, -8.695e-5, 2.140e-2, 6.833e+1
-1.107, -7.816e-5, 2.281e-2, 6.894e+1
-1.046, -6.872e-5, 2.115e-2, 6.955e+1
-0.985, -5.924e-5, 2.167e-2, 7.016e+1
-0.924, -4.967e-5, 2.002e-2, 7.077e+1
-0.863, -4.058e-5, 2.127e-2, 7.138e+1
-0.802, -3.219e-5, 1.991e-2, 7.199e+1
-0.741, -2.489e-5, 2.093e-2, 7.260e+1
-0.680, -1.869e-5, 1.957e-2, 7.321e+1
-0.619, -1.355e-5, 2.145e-2, 7.382e+1
-0.558, -9.553e-6, 1.933e-2, 7.443e+1
-0.497, -6.673e-6, 2.100e-2, 7.504e+1
-0.436, -4.572e-6, 1.966e-2, 7.565e+1
-0.375, -3.141e-6, 2.296e-2, 7.626e+1
-0.314, -1.975e-6, 2.039e-2, 7.687e+1
-0.253, -1.070e-6, 2.332e-2, 7.748e+1
-0.192, -3.135e-7, 1.996e-2, 7.809e+1
-0.131, 2.888e-7, 2.201e-2, 7.870e+1
-0.070, 7.946e-7, 1.918e-2, 7.931e+1
-0.009, 1.198e-6, 2.260e-2, 7.992e+1
-0.052, 3.430e-7, 1.924e-2, 8.053e+1
-0.113, -3.344e-7, 2.273e-2, 8.114e+1
-0.174, -1.015e-6, 1.831e-2, 8.175e+1
-0.235, -1.893e-6, 2.270e-2, 8.236e+1
-0.296, -2.800e-6, 2.130e-2, 8.297e+1
-0.357, -3.960e-6, 2.154e-2, 8.358e+1
-0.418, -5.363e-6, 2.142e-2, 8.419e+1
-0.479, -7.285e-6, 2.077e-2, 8.480e+1
-0.540, -1.001e-5, 1.958e-2, 8.541e+1
-0.601, -1.387e-5, 2.071e-2, 8.602e+1
-0.662, -1.949e-5, 1.884e-2, 8.663e+1
-0.723, -2.667e-5, 2.142e-2, 8.724e+1
-0.784, -3.553e-5, 1.956e-2, 8.785e+1
-0.845, -4.657e-5, 2.153e-2, 8.846e+1
-0.906, -5.955e-5, 1.980e-2, 8.907e+1
-0.967, -7.468e-5, 2.163e-2, 8.968e+1
-1.028, -9.177e-5, 2.124e-2, 9.029e+1
-1.089, -1.103e-4, 2.276e-2, 9.090e+1
-1.150, -1.295e-4, 2.042e-2, 9.151e+1
-1.211, -1.484e-4, 2.087e-2, 9.212e+1
-1.272, -1.660e-4, 1.984e-2, 9.273e+1
-1.333, -1.824e-4, 2.364e-2, 9.334e+1
-1.394, -1.972e-4, 2.451e-2, 9.395e+1
-1.455, -2.058e-4, 2.515e-2, 9.456e+1
-1.516, -2.115e-4, 3.133e-2, 9.517e+1
-1.577, -2.198e-4, 4.142e-2, 9.578e+1
-1.638, -2.201e-4, 8.477e-2, 9.639e+1
-1.699, -2.084e-4, 1.309e-1, 9.700e+1
-1.760, -1.987e-4, 1.567e-1, 9.761e+1
-1.821, -1.939e-4, 1.698e-1, 9.822e+1
-1.882, -1.941e-4, 1.769e-1, 9.883e+1
-1.943, -1.969e-4, 1.872e-1, 9.944e+1
-1.996, -1.971e-4, 2.040e-1, 1.001e+2
-1.935, -1.720e-4, 1.357e-1, 1.007e+2
-1.874, -1.589e-4, 1.035e-1, 1.013e+2
-1.813, -1.500e-4, 7.801e-2, 1.019e+2
-1.752, -1.430e-4, 6.441e-2, 1.025e+2
-1.691, -1.371e-4, 4.593e-2, 1.031e+2
-1.630, -1.312e-4, 3.954e-2, 1.037e+2
-1.569, -1.251e-4, 2.559e-2, 1.043e+2
-1.508, -1.199e-4, 2.561e-2, 1.049e+2
-1.447, -1.148e-4, 2.083e-2, 1.055e+2
-1.386, -1.092e-4, 2.522e-2, 1.062e+2
-1.325, -1.029e-4, 2.189e-2, 1.068e+2
-1.264, -9.611e-5, 2.321e-2, 1.074e+2
-1.203, -8.854e-5, 1.972e-2, 1.080e+2
-1.142, -8.046e-5, 2.282e-2, 1.086e+2
-1.081, -7.171e-5, 1.953e-2, 1.092e+2
-1.020, -6.269e-5, 2.291e-2, 1.098e+2
-0.959, -5.356e-5, 1.975e-2, 1.104e+2
-0.898, -4.461e-5, 1.990e-2, 1.110e+2
-0.837, -3.619e-5, 1.947e-2, 1.116e+2
-0.776, -2.862e-5, 2.106e-2, 1.123e+2
-0.715, -2.204e-5, 2.010e-2, 1.129e+2
-0.654, -1.649e-5, 2.071e-2, 1.135e+2
-0.593, -1.182e-5, 2.267e-2, 1.141e+2
-0.532, -8.473e-6, 2.000e-2, 1.147e+2
-0.471, -5.875e-6, 2.052e-2, 1.153e+2
-0.410, -4.171e-6, 2.075e-2, 1.159e+2
-0.349, -2.765e-6, 2.159e-2, 1.165e+2
-0.288, -1.732e-6, 1.887e-2, 1.171e+2
-0.227, -8.647e-7, 2.450e-2, 1.177e+2
-0.166, -1.504e-7, 1.939e-2, 1.184e+2
-0.105, 4.525e-7, 2.279e-2, 1.190e+2
-0.044, 8.942e-7, 1.955e-2, 1.196e+2
-0.017, 7.786e-7, 2.038e-2, 1.202e+2
-0.078, 3.721e-8, 1.854e-2, 1.208e+2
-0.139, -7.214e-7, 2.080e-2, 1.214e+2
-0.200, -1.532e-6, 1.916e-2, 1.220e+2
-0.261, -2.384e-6, 1.976e-2, 1.226e+2
-0.322, -3.487e-6, 1.989e-2, 1.232e+2
-0.383, -4.738e-6, 2.097e-2, 1.238e+2
-0.444, -6.324e-6, 1.893e-2, 1.245e+2
-0.505, -8.607e-6, 2.134e-2, 1.251e+2
-0.566, -1.169e-5, 2.078e-2, 1.257e+2
-0.627, -1.630e-5, 2.299e-2, 1.263e+2
-0.688, -2.254e-5, 1.937e-2, 1.269e+2
-0.749, -3.016e-5, 2.069e-2, 1.275e+2
-0.810, -3.948e-5, 2.061e-2, 1.281e+2
-0.871, -5.084e-5, 2.205e-2, 1.287e+2
-0.932, -6.389e-5, 2.121e-2, 1.293e+2
-0.993, -7.904e-5, 2.027e-2, 1.299e+2
-1.054, -9.572e-5, 2.100e-2, 1.306e+2
-1.115, -1.137e-4, 2.008e-2, 1.312e+2
-1.176, -1.317e-4, 2.399e-2, 1.318e+2
-1.237, -1.493e-4, 1.885e-2, 1.324e+2
-1.298, -1.655e-4, 2.306e-2, 1.330e+2
-1.359, -1.810e-4, 2.225e-2, 1.336e+2
-1.420, -1.933e-4, 2.654e-2, 1.342e+2
-1.481, -2.004e-4, 2.484e-2, 1.348e+2
-1.542, -2.081e-4, 3.287e-2, 1.354e+2
-1.603, -2.175e-4, 5.158e-2, 1.360e+2
-1.664, -2.139e-4, 8.686e-2, 1.367e+2
-1.725, -2.039e-4, 1.128e-1, 1.373e+2
-1.786, -1.970e-4, 1.346e-1, 1.379e+2
-1.847, -1.948e-4, 1.514e-1, 1.385e+2
-1.908, -1.975e-4, 1.726e-1, 1.391e+2
-1.969, -2.015e-4, 1.883e-1, 1.397e+2
-1.970, -1.849e-4, 1.572e-1, 1.403e+2
-1.909, -1.643e-4, 1.129e-1, 1.409e+2
-1.848, -1.520e-4, 7.983e-2, 1.415e+2
-1.787, -1.429e-4, 5.810e-2, 1.421e+2
-1.726, -1.356e-4, 4.885e-2, 1.428e+2
-1.665, -1.289e-4, 4.027e-2, 1.434e+2
-1.604, -1.224e-4, 2.993e-2, 1.440e+2
-1.543, -1.160e-4, 2.441e-2, 1.446e+2
-1.482, -1.106e-4, 2.131e-2, 1.452e+2
-1.421, -1.054e-4, 2.341e-2, 1.458e+2
-1.360, -9.970e-5, 2.134e-2, 1.464e+2
-1.299, -9.343e-5, 2.373e-2, 1.470e+2
-1.238, -8.674e-5, 2.067e-2, 1.476e+2
-1.177, -7.955e-5, 2.380e-2, 1.482e+2
-1.116, -7.178e-5, 1.960e-2, 1.488e+2
-1.055, -6.365e-5, 2.161e-2, 1.495e+2
-0.994, -5.530e-5, 1.803e-2, 1.501e+2
-0.933, -4.698e-5, 2.244e-2, 1.507e+2
-0.872, -3.892e-5, 1.847e-2, 1.513e+2
-0.811, -3.140e-5, 2.244e-2, 1.519e+2
-0.750, -2.476e-5, 2.027e-2, 1.525e+2
-0.689, -1.899e-5, 2.245e-2, 1.531e+2
-0.628, -1.405e-5, 1.936e-2, 1.537e+2
-0.567, -1.015e-5, 2.250e-2, 1.543e+2
-0.506, -7.210e-6, 2.095e-2, 1.549e+2
-0.445, -5.136e-6, 2.085e-2, 1.556e+2
-0.384, -3.545e-6, 1.926e-2, 1.562e+2
-0.323, -2.315e-6, 2.151e-2, 1.568e+2
-0.262, -1.396e-6, 1.923e-2, 1.574e+2
-0.201, -5.996e-7, 2.031e-2, 1.580e+2
-0.140, 1.412e-7, 2.110e-2, 1.586e+2
-0.079, 6.131e-7, 2.150e-2, 1.592e+2
-0.018, 1.103e-6, 1.818e-2, 1.598e+2
-0.043, 3.584e-7, 2.007e-2, 1.604e+2
-0.104, -3.245e-7, 2.015e-2, 1.610e+2
-0.165, -1.132e-6, 1.968e-2, 1.617e+2
-0.226, -1.901e-6, 2.023e-2, 1.623e+2
-0.287, -2.945e-6, 1.883e-2, 1.629e+2
-0.348, -3.999e-6, 2.036e-2, 1.635e+2
-0.409, -5.439e-6, 2.020e-2, 1.641e+2
-0.470, -7.221e-6, 2.032e-2, 1.647e+2
-0.531, -9.846e-6, 1.799e-2, 1.653e+2
-0.592, -1.337e-5, 2.076e-2, 1.659e+2
-0.653, -1.859e-5, 1.898e-2, 1.665e+2
-0.714, -2.505e-5, 1.961e-2, 1.671e+2
-0.775, -3.310e-5, 1.904e-2, 1.677e+2
-0.836, -4.263e-5, 1.987e-2, 1.684e+2
-0.897, -5.407e-5, 1.937e-2, 1.690e+2
-0.958, -6.709e-5, 2.075e-2, 1.696e+2
-1.019, -8.202e-5, 1.875e-2, 1.702e+2
-1.080, -9.809e-5, 2.097e-2, 1.708e+2
-1.141, -1.152e-4, 1.895e-2, 1.714e+2
-1.202, -1.322e-4, 2.052e-2, 1.720e+2
-1.263, -1.486e-4, 2.115e-2, 1.726e+2
-1.324, -1.641e-4, 2.165e-2, 1.732e+2
-1.385, -1.790e-4, 2.412e-2, 1.738e+2
-1.446, -1.895e-4, 2.413e-2, 1.745e+2
-1.507, -1.975e-4, 2.550e-2, 1.751e+2
-1.568, -2.084e-4, 3.168e-2, 1.757e+2
-1.629, -2.169e-4, 5.844e-2, 1.763e+2
-1.690, -2.120e-4, 8.189e-2, 1.769e+2
-1.751, -2.051e-4, 1.046e-1, 1.775e+2
-1.812, -2.009e-4, 1.227e-1, 1.781e+2
-1.873, -2.015e-4, 1.334e-1, 1.787e+2
-1.934, -2.058e-4, 1.683e-1, 1.793e+2
-1.995, -2.112e-4, 2.026e-1, 1.799e+2
-1.944, -1.802e-4, 1.186e-1, 1.806e+2
-1.883, -1.629e-4, 8.744e-2, 1.812e+2
-1.822, -1.514e-4, 6.396e-2, 1.818e+2
-1.761, -1.425e-4, 5.265e-2, 1.824e+2
-1.700, -1.349e-4, 3.937e-2, 1.830e+2
-1.639, -1.279e-4, 3.282e-2, 1.836e+2
-1.578, -1.206e-4, 2.609e-2, 1.842e+2
-1.517, -1.143e-4, 2.179e-2, 1.848e+2
-1.456, -1.087e-4, 2.075e-2, 1.854e+2
-1.395, -1.032e-4, 2.062e-2, 1.860e+2
-1.334, -9.705e-5, 1.994e-2, 1.866e+2
-1.273, -9.061e-5, 1.928e-2, 1.873e+2
-1.212, -8.368e-5, 1.972e-2, 1.879e+2
-1.151, -7.628e-5, 1.945e-2, 1.885e+2
-1.090, -6.837e-5, 1.911e-2, 1.891e+2
-1.029, -6.032e-5, 2.002e-2, 1.897e+2
-0.968, -5.200e-5, 1.943e-2, 1.903e+2
-0.907, -4.389e-5, 1.928e-2, 1.909e+2
-0.846, -3.605e-5, 1.960e-2, 1.915e+2
-0.785, -2.903e-5, 1.863e-2, 1.921e+2
-0.724, -2.270e-5, 1.984e-2, 1.927e+2
-0.663, -1.739e-5, 1.881e-2, 1.934e+2
-0.602, -1.276e-5, 1.933e-2, 1.940e+2
-0.541, -9.311e-6, 1.838e-2, 1.946e+2
-0.480, -6.604e-6, 2.066e-2, 1.952e+2
-0.419, -4.786e-6, 1.949e-2, 1.958e+2
-0.358, -3.240e-6, 2.003e-2, 1.964e+2
-0.297, -2.136e-6, 1.740e-2, 1.970e+2
-0.236, -1.227e-6, 1.999e-2, 1.976e+2
-0.175, -4.476e-7, 1.833e-2, 1.982e+2
-0.114, 2.230e-7, 2.009e-2, 1.988e+2
-0.053, 7.115e-7, 1.604e-2, 1.994e+2
-0.008, 8.629e-7, 2.117e-2, 2.001e+2
-0.069, -1.632e-8, 1.595e-2, 2.007e+2
-0.130, -7.466e-7, 2.174e-2, 2.013e+2
-0.191, -1.605e-6, 1.750e-2, 2.019e+2
-0.252, -2.521e-6, 2.036e-2, 2.025e+2
-0.313, -3.615e-6, 1.918e-2, 2.031e+2
-0.374, -4.850e-6, 2.216e-2, 2.037e+2
-0.435, -6.503e-6, 1.804e-2, 2.043e+2
-0.496, -8.625e-6, 1.985e-2, 2.049e+2
-0.557, -1.155e-5, 1.686e-2, 2.055e+2
-0.618, -1.582e-5, 2.017e-2, 2.062e+2
-0.679, -2.156e-5, 1.674e-2, 2.068e+2
-0.740, -2.852e-5, 2.103e-2, 2.074e+2
-0.801, -3.694e-5, 1.794e-2, 2.080e+2
-0.862, -4.694e-5, 2.143e-2, 2.086e+2
-0.923, -5.854e-5, 1.785e-2, 2.092e+2
-0.984, -7.164e-5, 2.013e-2, 2.098e+2
-1.045, -8.628e-5, 1.897e-2, 2.104e+2
-1.106, -1.021e-4, 2.124e-2, 2.110e+2
-1.167, -1.184e-4, 1.825e-2, 2.116e+2
-1.228, -1.344e-4, 2.254e-2, 2.123e+2
-1.289, -1.498e-4, 2.007e-2, 2.129e+2
-1.350, -1.649e-4, 2.374e-2, 2.135e+2
-1.411, -1.782e-4, 2.189e-2, 2.141e+2
-1.472, -1.875e-4, 2.559e-2, 2.147e+2
-1.533, -1.969e-4, 2.752e-2, 2.153e+2
-1.594, -2.098e-4, 3.523e-2, 2.159e+2
-1.655, -2.145e-4, 5.338e-2, 2.165e+2
-1.716, -2.098e-4, 8.400e-2, 2.171e+2
-1.777, -2.048e-4, 9.540e-2, 2.177e+2
-1.838, -2.026e-4, 1.211e-1, 2.183e+2
-1.899, -2.046e-4, 1.412e-1, 2.190e+2
-1.960, -2.094e-4, 1.753e-1, 2.196e+2
-1.979, -1.974e-4, 1.549e-1, 2.202e+2
-1.918, -1.723e-4, 9.990e-2, 2.208e+2
-1.857, -1.572e-4, 7.131e-2, 2.214e+2
-1.796, -1.465e-4, 5.405e-2, 2.220e+2
-1.735, -1.377e-4, 4.205e-2, 2.226e+2
-1.674, -1.301e-4, 3.640e-2, 2.232e+2
-1.613, -1.224e-4, 2.860e-2, 2.238e+2
-1.552, -1.149e-4, 2.357e-2, 2.244e+2
-1.491, -1.087e-4, 2.435e-2, 2.251e+2
-1.430, -1.031e-4, 1.909e-2, 2.257e+2
-1.369, -9.722e-5, 2.419e-2, 2.263e+2
-1.308, -9.101e-5, 1.897e-2, 2.269e+2
-1.247, -8.454e-5, 2.229e-2, 2.275e+2
-1.186, -7.765e-5, 1.669e-2, 2.281e+2
-1.125, -7.032e-5, 2.216e-2, 2.287e+2
-1.064, -6.276e-5, 1.712e-2, 2.293e+2
-1.003, -5.498e-5, 2.067e-2, 2.299e+2
-0.942, -4.719e-5, 1.695e-2, 2.305e+2
-0.881, -3.952e-5, 2.056e-2, 2.312e+2
-0.820, -3.239e-5, 1.699e-2, 2.318e+2
-0.759, -2.589e-5, 2.560e-2, 2.324e+2
-0.698, -2.024e-5, 1.904e-2, 2.330e+2
-0.637, -1.538e-5, 2.069e-2, 2.336e+2
-0.576, -1.128e-5, 1.849e-2, 2.342e+2
-0.515, -8.233e-6, 1.977e-2, 2.348e+2
-0.454, -5.910e-6, 1.928e-2, 2.354e+2
-0.393, -4.269e-6, 1.902e-2, 2.360e+2
-0.332, -2.891e-6, 1.995e-2, 2.366e+2
-0.271, -1.890e-6, 1.826e-2, 2.372e+2
-0.210, -9.761e-7, 2.084e-2, 2.379e+2
-0.149, -2.618e-7, 1.897e-2, 2.385e+2
-0.088, 4.494e-7, 1.967e-2, 2.391e+2
-0.027, 8.678e-7, 1.863e-2, 2.397e+2
-0.034, 3.885e-7, 2.109e-2, 2.403e+2
-0.095, -3.891e-7, 1.834e-2, 2.409e+2
-0.156, -1.183e-6, 2.242e-2, 2.415e+2
-0.217, -2.098e-6, 1.765e-2, 2.421e+2
-0.278, -3.071e-6, 2.165e-2, 2.427e+2
-0.339, -4.295e-6, 1.809e-2, 2.433e+2
-0.400, -5.660e-6, 2.289e-2, 2.440e+2
-0.461, -7.483e-6, 1.783e-2, 2.446e+2
-0.522, -9.933e-6, 2.090e-2, 2.452e+2
-0.583, -1.322e-5, 1.889e-2, 2.458e+2
-0.644, -1.794e-5, 2.169e-2, 2.464e+2
-0.705, -2.395e-5, 1.956e-2, 2.470e+2
-0.766, -3.108e-5, 2.115e-2, 2.476e+2
-0.827, -3.955e-5, 1.897e-2, 2.482e+2
-0.888, -4.950e-5, 2.017e-2, 2.488e+2
-0.949, -6.080e-5, 1.817e-2, 2.494e+2
-1.010, -7.344e-5, 2.000e-2, 2.501e+2
-1.071, -8.726e-5, 1.949e-2, 2.507e+2
-1.132, -1.021e-4, 1.935e-2, 2.513e+2
-1.193, -1.170e-4, 1.998e-2, 2.519e+2
-1.254, -1.317e-4, 1.884e-2, 2.525e+2
-1.315, -1.460e-4, 2.169e-2, 2.531e+2
-1.376, -1.602e-4, 2.033e-2, 2.537e+2
-1.437, -1.717e-4, 2.175e-2, 2.543e+2
-1.498, -1.811e-4, 2.485e-2, 2.549e+2
-1.559, -1.928e-4, 3.303e-2, 2.555e+2
-1.620, -2.056e-4, 4.470e-2, 2.561e+2
-1.681, -2.075e-4, 5.962e-2, 2.568e+2
-1.742, -2.042e-4, 6.907e-2, 2.574e+2
-1.803, -2.012e-4, 8.393e-2, 2.580e+2
-1.864, -2.009e-4, 1.203e-1, 2.586e+2
-1.925, -2.038e-4, 1.571e-1, 2.592e+2
-1.986, -2.088e-4, 2.096e-1, 2.598e+2
-1.953, -1.825e-4, 1.303e-1, 2.604e+2
-1.892, -1.632e-4, 8.297e-2, 2.610e+2
-1.831, -1.503e-4, 5.838e-2, 2.616e+2
-1.770, -1.404e-4, 4.395e-2, 2.623e+2
-1.709, -1.319e-4, 3.836e-2, 2.629e+2
-1.648, -1.242e-4, 3.015e-2, 2.635e+2
-1.587, -1.162e-4, 2.868e-2, 2.641e+2
-1.526, -1.089e-4, 2.075e-2, 2.647e+2
-1.465, -1.031e-4, 2.316e-2, 2.653e+2
-1.404, -9.736e-5, 2.050e-2, 2.659e+2
-1.343, -9.135e-5, 2.098e-2, 2.665e+2
-1.282, -8.515e-5, 1.843e-2, 2.671e+2
-1.221, -7.873e-5, 2.142e-2, 2.678e+2
-1.160, -7.187e-5, 1.807e-2, 2.684e+2
-1.099, -6.477e-5, 2.155e-2, 2.690e+2
-1.038, -5.745e-5, 1.695e-2, 2.696e+2
-0.977, -5.006e-5, 1.986e-2, 2.702e+2
-0.916, -4.265e-5, 1.832e-2, 2.708e+2
-0.855, -3.557e-5, 2.119e-2, 2.714e+2
-0.794, -2.901e-5, 1.815e-2, 2.720e+2
-0.733, -2.320e-5, 1.914e-2, 2.726e+2
-0.672, -1.797e-5, 1.994e-2, 2.732e+2
-0.611, -1.361e-5, 1.873e-2, 2.739e+2
-0.550, -1.004e-5, 2.063e-2, 2.745e+2
-0.489, -7.369e-6, 1.959e-2, 2.751e+2
-0.428, -5.294e-6, 1.972e-2, 2.757e+2
-0.367, -3.845e-6, 2.006e-2, 2.763e+2
-0.306, -2.536e-6, 2.032e-2, 2.769e+2
-0.245, -1.647e-6, 1.984e-2, 2.775e+2
-0.184, -7.306e-7, 2.126e-2, 2.781e+2
-0.123, -8.953e-8, 1.949e-2, 2.787e+2
-0.062, 5.866e-7, 2.053e-2, 2.794e+2
-0.001, 1.035e-6, 1.748e-2, 2.800e+2
-0.060, -3.396e-9, 2.038e-2, 2.806e+2
-0.121, -8.524e-7, 1.688e-2, 2.812e+2
-0.182, -1.665e-6, 1.979e-2, 2.818e+2
-0.243, -2.627e-6, 1.731e-2, 2.824e+2
-0.304, -3.718e-6, 1.945e-2, 2.830e+2
-0.365, -5.005e-6, 1.617e-2, 2.836e+2
-0.426, -6.524e-6, 2.009e-2, 2.842e+2
-0.487, -8.546e-6, 1.552e-2, 2.848e+2
-0.548, -1.123e-5, 2.390e-2, 2.855e+2
-0.609, -1.496e-5, 1.761e-2, 2.861e+2
-0.670, -2.001e-5, 2.137e-2, 2.867e+2
-0.731, -2.610e-5, 1.820e-2, 2.873e+2
-0.792, -3.332e-5, 2.001e-2, 2.879e+2
-0.853, -4.180e-5, 1.854e-2, 2.885e+2
-0.914, -5.155e-5, 2.053e-2, 2.891e+2
-0.975, -6.249e-5, 1.890e-2, 2.897e+2
-1.036, -7.455e-5, 2.334e-2, 2.903e+2
-1.097, -8.762e-5, 1.934e-2, 2.910e+2
-1.158, -1.014e-4, 2.163e-2, 2.916e+2
-1.219, -1.152e-4, 1.998e-2, 2.922e+2
-1.280, -1.289e-4, 2.168e-2, 2.928e+2
-1.341, -1.426e-4, 1.813e-2, 2.934e+2
-1.402, -1.558e-4, 2.156e-2, 2.940e+2
-1.463, -1.665e-4, 2.303e-2, 2.946e+2
-1.524, -1.771e-4, 2.399e-2, 2.952e+2
-1.585, -1.911e-4, 2.839e-2, 2.958e+2
-1.646, -2.017e-4, 4.202e-2, 2.964e+2
-1.707, -2.026e-4, 5.981e-2, 2.971e+2
-1.768, -2.008e-4, 7.748e-2, 2.977e+2
-1.829, -1.993e-4, 1.006e-1, 2.983e+2
-1.890, -1.999e-4, 1.421e-1, 2.989e+2
-1.951, -2.030e-4, 1.903e-1, 2.995e+2
-1.988, -1.975e-4, 2.044e-1, 3.001e+2
-1.927, -1.713e-4, 1.045e-1, 3.007e+2
-1.866, -1.558e-4, 6.519e-2, 3.013e+2
-1.805, -1.443e-4, 5.242e-2, 3.019e+2
-1.744, -1.351e-4, 3.831e-2, 3.026e+2
-1.683, -1.267e-4, 3.005e-2, 3.032e+2
-1.622, -1.189e-4, 2.615e-2, 3.038e+2
-1.561, -1.106e-4, 2.466e-2, 3.044e+2
-1.500, -1.039e-4, 2.149e-2, 3.050e+2
-1.439, -9.790e-5, 2.144e-2, 3.056e+2
-1.378, -9.205e-5, 1.916e-2, 3.062e+2
-1.317, -8.594e-5, 2.147e-2, 3.068e+2
-1.256, -7.979e-5, 1.841e-2, 3.074e+2
-1.195, -7.327e-5, 1.974e-2, 3.080e+2
-1.134, -6.657e-5, 1.727e-2, 3.087e+2
-1.073, -5.957e-5, 1.970e-2, 3.093e+2
-1.012, -5.263e-5, 1.887e-2, 3.099e+2
-0.951, -4.549e-5, 2.053e-2, 3.105e+2
-0.890, -3.858e-5, 2.037e-2, 3.111e+2
-0.829, -3.195e-5, 2.188e-2, 3.117e+2
-0.768, -2.595e-5, 1.772e-2, 3.123e+2
-0.707, -2.065e-5, 2.121e-2, 3.129e+2
-0.646, -1.600e-5, 1.855e-2, 3.135e+2
-0.585, -1.196e-5, 2.198e-2, 3.142e+2
-0.524, -8.946e-6, 1.767e-2, 3.148e+2
-0.463, -6.536e-6, 1.942e-2, 3.154e+2
-0.402, -4.782e-6, 1.598e-2, 3.160e+2
-0.341, -3.385e-6, 1.959e-2, 3.166e+2
-0.280, -2.293e-6, 1.715e-2, 3.172e+2
-0.219, -1.350e-6, 2.098e-2, 3.178e+2
-0.158, -5.356e-7, 1.612e-2, 3.184e+2
-0.097, 1.455e-7, 2.020e-2, 3.190e+2
-0.036, 7.306e-7, 1.739e-2, 3.197e+2
-0.025, 4.039e-7, 2.141e-2, 3.203e+2
-0.086, -4.384e-7, 1.826e-2, 3.209e+2
-0.147, -1.258e-6, 2.076e-2, 3.215e+2
-0.208, -2.178e-6, 2.105e-2, 3.221e+2
-0.269, -3.237e-6, 2.082e-2, 3.227e+2
-0.330, -4.326e-6, 1.835e-2, 3.233e+2
-0.391, -5.660e-6, 2.062e-2, 3.239e+2
-0.452, -7.357e-6, 1.957e-2, 3.245e+2
-0.513, -9.617e-6, 2.065e-2, 3.251e+2
-0.574, -1.253e-5, 1.965e-2, 3.258e+2
-0.635, -1.667e-5, 1.966e-2, 3.264e+2
-0.696, -2.178e-5, 1.879e-2, 3.270e+2
-0.757, -2.795e-5, 1.829e-2, 3.276e+2
-0.818, -3.507e-5, 2.097e-2, 3.282e+2
-0.879, -4.335e-5, 1.793e-2, 3.288e+2
-0.940, -5.265e-5, 2.005e-2, 3.294e+2
-1.001, -6.313e-5, 1.840e-2, 3.300e+2
-1.062, -7.439e-5, 2.023e-2, 3.306e+2
-1.123, -8.667e-5, 2.002e-2, 3.313e+2
-1.184, -9.933e-5, 2.083e-2, 3.319e+2
-1.245, -1.122e-4, 1.985e-2, 3.325e+2
-1.306, -1.249e-4, 2.278e-2, 3.331e+2
-1.367, -1.382e-4, 2.059e-2, 3.337e+2
-1.428, -1.502e-4, 2.454e-2, 3.343e+2
-1.489, -1.607e-4, 2.065e-2, 3.349e+2
-1.550, -1.729e-4, 2.861e-2, 3.355e+2
-1.611, -1.878e-4, 3.425e-2, 3.361e+2
-1.672, -1.956e-4, 4.828e-2, 3.367e+2
-1.733, -1.966e-4, 5.908e-2, 3.374e+2
-1.794, -1.961e-4, 8.004e-2, 3.380e+2
-1.855, -1.959e-4, 1.105e-1, 3.386e+2
-1.916, -1.971e-4, 1.742e-1, 3.392e+2
-1.977, -1.997e-4, 2.210e-1, 3.398e+2
-1.962, -1.802e-4, 1.519e-1, 3.404e+2
-1.901, -1.609e-4, 8.106e-2, 3.410e+2
-1.840, -1.477e-4, 5.827e-2, 3.416e+2
-1.779, -1.373e-4, 4.524e-2, 3.422e+2
-1.718, -1.284e-4, 3.735e-2, 3.429e+2
-1.657, -1.204e-4, 2.693e-2, 3.435e+2
-1.596, -1.120e-4, 2.530e-2, 3.441e+2
-1.535, -1.040e-4, 2.043e-2, 3.447e+2
-1.474, -9.766e-5, 2.071e-2, 3.453e+2
-1.413, -9.175e-5, 1.872e-2, 3.459e+2
-1.352, -8.582e-5, 1.988e-2, 3.465e+2
-1.291, -7.981e-5, 1.999e-2, 3.471e+2
-1.230, -7.369e-5, 2.090e-2, 3.477e+2
-1.169, -6.721e-5, 2.097e-2, 3.483e+2
-1.108, -6.082e-5, 1.888e-2, 3.490e+2
-1.047, -5.408e-5, 2.126e-2, 3.496e+2
-0.986, -4.747e-5, 1.963e-2, 3.502e+2
-0.925, -4.071e-5, 2.267e-2, 3.508e+2
-0.864, -3.441e-5, 1.898e-2, 3.514e+2
-0.803, -2.835e-5, 2.165e-2, 3.520e+2
-0.742, -2.297e-5, 1.814e-2, 3.526e+2
-0.681, -1.818e-5, 2.112e-2, 3.532e+2
-0.620, -1.400e-5, 1.804e-2, 3.538e+2
-0.559, -1.054e-5, 2.122e-2, 3.545e+2
-0.498, -7.862e-6, 1.771e-2, 3.551e+2
-0.437, -5.763e-6, 2.125e-2, 3.557e+2
-0.376, -4.237e-6, 1.811e-2, 3.563e+2
-0.315, -2.993e-6, 2.129e-2, 3.569e+2
-0.254, -1.971e-6, 1.876e-2, 3.575e+2
-0.193, -1.078e-6, 2.056e-2, 3.581e+2
-0.132, -2.581e-7, 1.799e-2, 3.587e+2
-0.071, 3.405e-7, 2.063e-2, 3.593e+2
-0.010, 9.133e-7, 1.943e-2, 3.599e+2
-0.051, -2.166e-9, 1.888e-2, 3.606e+2
-0.112, -8.432e-7, 1.898e-2, 3.612e+2
-0.173, -1.705e-6, 1.879e-2, 3.618e+2
-0.234, -2.618e-6, 1.847e-2, 3.624e+2
-0.295, -3.758e-6, 1.801e-2, 3.630e+2
-0.356, -4.877e-6, 2.015e-2, 3.636e+2
-0.417, -6.385e-6, 1.830e-2, 3.642e+2
-0.478, -8.125e-6, 2.145e-2, 3.648e+2
-0.539, -1.053e-5, 1.865e-2, 3.654e+2
-0.600, -1.375e-5, 2.042e-2, 3.661e+2
-0.661, -1.803e-5, 1.831e-2, 3.667e+2
-0.722, -2.319e-5, 2.078e-2, 3.673e+2
-0.783, -2.921e-5, 1.854e-2, 3.679e+2
-0.844, -3.612e-5, 1.934e-2, 3.685e+2
-0.905, -4.405e-5, 1.787e-2, 3.691e+2
-0.966, -5.287e-5, 2.137e-2, 3.697e+2
-1.027, -6.263e-5, 1.801e-2, 3.703e+2
-1.088, -7.318e-5, 2.222e-2, 3.709e+2
-1.149, -8.440e-5, 1.719e-2, 3.716e+2
-1.210, -9.613e-5, 2.227e-2, 3.722e+2
-1.271, -1.080e-4, 2.052e-2, 3.728e+2
-1.332, -1.201e-4, 2.086e-2, 3.734e+2
-1.393, -1.324e-4, 1.962e-2, 3.740e+2
-1.454, -1.435e-4, 2.279e-2, 3.746e+2
-1.515, -1.544e-4, 2.232e-2, 3.752e+2
-1.576, -1.684e-4, 2.945e-2, 3.758e+2
-1.637, -1.822e-4, 3.761e-2, 3.764e+2
-1.698, -1.880e-4, 4.988e-2, 3.770e+2
-1.759, -1.897e-4, 6.834e-2, 3.777e+2
-1.820, -1.905e-4, 9.408e-2, 3.783e+2
-1.881, -1.913e-4, 1.264e-1, 3.789e+2
-1.942, -1.928e-4, 1.964e-1, 3.795e+2
-1.997, -1.926e-4, 2.565e-1, 3.801e+2
-1.936, -1.667e-4, 1.240e-1, 3.807e+2
-1.875, -1.511e-4, 7.611e-2, 3.813e+2
-1.814, -1.396e-4, 4.774e-2, 3.819e+2
-1.753, -1.299e-4, 3.794e-2, 3.825e+2
-1.692, -1.215e-4, 2.680e-2, 3.832e+2
-1.631, -1.131e-4, 2.806e-2, 3.838e+2
-1.570, -1.048e-4, 2.150e-2, 3.844e+2
-1.509, -9.738e-5, 2.173e-2, 3.850e+2
-1.448, -9.125e-5, 1.952e-2, 3.856e+2
-1.387, -8.539e-5, 2.340e-2, 3.862e+2
-1.326, -7.957e-5, 2.024e-2, 3.868e+2
-1.265, -7.363e-5, 2.259e-2, 3.874e+2
-1.204, -6.760e-5, 1.895e-2, 3.880e+2
-1.143, -6.143e-5, 2.014e-2, 3.886e+2
-1.082, -5.518e-5, 1.737e-2, 3.893e+2
-1.021, -4.885e-5, 2.113e-2, 3.899e+2
-0.960, -4.251e-5, 1.905e-2, 3.905e+2
-0.899, -3.637e-5, 2.070e-2, 3.911e+2
-0.838, -3.049e-5, 1.771e-2, 3.917e+2
-0.777, -2.510e-5, 2.225e-2, 3.923e+2
-0.716, -2.024e-5, 1.822e-2, 3.929e+2
-0.655, -1.592e-5, 2.164e-2, 3.935e+2
-0.594, -1.216e-5, 1.892e-2, 3.941e+2
-0.533, -9.235e-6, 2.317e-2, 3.948e+2
-0.472, -6.882e-6, 1.806e-2, 3.954e+2
-0.411, -5.115e-6, 1.991e-2, 3.960e+2
-0.350, -3.686e-6, 1.864e-2, 3.966e+2
-0.289, -2.591e-6, 1.980e-2, 3.972e+2
-0.228, -1.597e-6, 1.878e-2, 3.978e+2
-0.167, -7.841e-7, 1.964e-2, 3.984e+2
-0.106, 2.244e-8, 2.045e-2, 3.990e+2
-0.045, 5.632e-7, 2.084e-2, 3.996e+2
-0.016, 5.183e-7, 2.063e-2, 4.002e+2
-0.077, -3.996e-7, 2.095e-2, 4.009e+2
-0.138, -1.255e-6, 1.965e-2, 4.015e+2
-0.199, -2.161e-6, 1.889e-2, 4.021e+2
-0.260, -3.100e-6, 2.008e-2, 4.027e+2
-0.321, -4.245e-6, 1.840e-2, 4.033e+2
-0.382, -5.383e-6, 1.851e-2, 4.039e+2
-0.443, -6.988e-6, 1.841e-2, 4.045e+2
-0.504, -8.884e-6, 1.896e-2, 4.051e+2
-0.565, -1.144e-5, 1.970e-2, 4.057e+2
-0.626, -1.480e-5, 1.974e-2, 4.064e+2
-0.687, -1.919e-5, 1.855e-2, 4.070e+2
-0.748, -2.424e-5, 2.027e-2, 4.076e+2
-0.809, -3.017e-5, 1.944e-2, 4.082e+2
-0.870, -3.668e-5, 2.032e-2, 4.088e+2
-0.931, -4.421e-5, 1.791e-2, 4.094e+2
-0.992, -5.247e-5, 1.899e-2, 4.100e+2
-1.053, -6.158e-5, 1.998e-2, 4.106e+2
-1.114, -7.128e-5, 2.019e-2, 4.112e+2
-1.175, -8.173e-5, 1.965e-2, 4.119e+2
-1.236, -9.243e-5, 2.361e-2, 4.125e+2
-1.297, -1.035e-4, 1.916e-2, 4.131e+2
-1.358, -1.150e-4, 2.377e-2, 4.137e+2
-1.419, -1.263e-4, 1.947e-2, 4.143e+2
-1.480, -1.368e-4, 2.412e-2, 4.149e+2
-1.541, -1.487e-4, 2.374e-2, 4.155e+2
-1.602, -1.638e-4, 3.401e-2, 4.161e+2
-1.663, -1.751e-4, 4.361e-2, 4.167e+2
-1.724, -1.802e-4, 5.732e-2, 4.173e+2
-1.785, -1.826e-4, 7.453e-2, 4.180e+2
-1.846, -1.844e-4, 1.048e-1, 4.186e+2
-1.907, -1.861e-4, 1.578e-1, 4.192e+2
-1.968, -1.879e-4, 2.381e-1, 4.198e+2
-1.971, -1.740e-4, 1.910e-1, 4.204e+2
-1.910, -1.551e-4, 9.338e-2, 4.210e+2
-1.849, -1.419e-4, 5.558e-2, 4.216e+2
-1.788, -1.313e-4, 4.517e-2, 4.222e+2
-1.727, -1.222e-4, 3.285e-2, 4.228e+2
-1.666, -1.140e-4, 2.958e-2, 4.235e+2
-1.605, -1.056e-4, 2.378e-2, 4.241e+2
-1.544, -9.740e-5, 2.437e-2, 4.247e+2
-1.483, -9.067e-5, 2.051e-2, 4.253e+2
-1.422, -8.477e-5, 2.107e-2, 4.259e+2
-1.361, -7.902e-5, 2.108e-2, 4.265e+2
-1.300, -7.328e-5, 2.019e-2, 4.271e+2
-1.239, -6.749e-5, 1.932e-2, 4.277e+2
-1.178, -6.179e-5, 1.908e-2, 4.283e+2
-1.117, -5.576e-5, 1.811e-2, 4.289e+2
-1.056, -4.984e-5, 1.882e-2, 4.296e+2
-0.995, -4.384e-5, 1.962e-2, 4.302e+2
-0.934, -3.801e-5, 2.062e-2, 4.308e+2
-0.873, -3.231e-5, 1.890e-2, 4.314e+2
-0.812, -2.698e-5, 1.968e-2, 4.320e+2
-0.751, -2.208e-5, 1.951e-2, 4.326e+2
-0.690, -1.779e-5, 1.906e-2, 4.332e+2
-0.629, -1.384e-5, 2.012e-2, 4.338e+2
-0.568, -1.064e-5, 1.768e-2, 4.344e+2
-0.507, -8.028e-6, 1.905e-2, 4.351e+2
-0.446, -6.012e-6, 1.919e-2, 4.357e+2
-0.385, -4.394e-6, 2.005e-2, 4.363e+2
-0.324, -3.257e-6, 1.816e-2, 4.369e+2
-0.263, -2.125e-6, 1.941e-2, 4.375e+2
-0.202, -1.310e-6, 1.910e-2, 4.381e+2
-0.141, -4.082e-7, 1.983e-2, 4.387e+2
-0.080, 1.689e-7, 2.020e-2, 4.393e+2
-0.019, 8.290e-7, 2.108e-2, 4.399e+2
-0.042, 2.183e-8, 1.762e-2, 4.405e+2
-0.103, -7.521e-7, 1.842e-2, 4.412e+2
-0.164, -1.655e-6, 1.769e-2, 4.418e+2
-0.225, -2.542e-6, 1.956e-2, 4.424e+2
-0.286, -3.603e-6, 1.928e-2, 4.430e+2
-0.347, -4.630e-6, 2.207e-2, 4.436e+2
-0.408, -5.977e-6, 1.826e-2, 4.442e+2
-0.469, -7.530e-6, 2.126e-2, 4.448e+2
-0.530, -9.673e-6, 1.780e-2, 4.454e+2
-0.591, -1.227e-5, 2.096e-2, 4.460e+2
-0.652, -1.591e-5, 1.808e-2, 4.467e+2
-0.713, -2.014e-5, 1.895e-2, 4.473e+2
-0.774, -2.514e-5, 1.722e-2, 4.479e+2
-0.835, -3.077e-5, 2.038e-2, 4.485e+2
-0.896, -3.708e-5, 1.951e-2, 4.491e+2
-0.957, -4.409e-5, 2.172e-2, 4.497e+2
-1.018, -5.192e-5, 1.844e-2, 4.503e+2
-1.079, -6.029e-5, 2.267e-2, 4.509e+2
-1.140, -6.945e-5, 1.915e-2, 4.515e+2
-1.201, -7.904e-5, 2.122e-2, 4.521e+2
-1.262, -8.898e-5, 1.665e-2, 4.528e+2
-1.323, -9.946e-5, 1.953e-2, 4.534e+2
-1.384, -1.104e-4, 1.812e-2, 4.540e+2
-1.445, -1.209e-4, 2.430e-2, 4.546e+2
-1.506, -1.313e-4, 2.334e-2, 4.552e+2
-1.567, -1.445e-4, 2.902e-2, 4.558e+2
-1.628, -1.591e-4, 3.651e-2, 4.564e+2
-1.689, -1.681e-4, 4.718e-2, 4.570e+2
-1.750, -1.731e-4, 5.910e-2, 4.576e+2
-1.811, -1.765e-4, 8.689e-2, 4.583e+2
-1.872, -1.791e-4, 1.263e-1, 4.589e+2
-1.933, -1.813e-4, 1.981e-1, 4.595e+2
-1.994, -1.835e-4, 3.016e-1, 4.601e+2
-1.945, -1.605e-4, 1.532e-1, 4.607e+2
-1.884, -1.450e-4, 7.982e-2, 4.613e+2
-1.823, -1.333e-4, 5.450e-2, 4.619e+2
-1.762, -1.235e-4, 3.958e-2, 4.625e+2
-1.701, -1.149e-4, 3.190e-2, 4.631e+2
-1.640, -1.066e-4, 2.487e-2, 4.638e+2
-1.579, -9.813e-5, 2.512e-2, 4.644e+2
-1.518, -9.054e-5, 1.974e-2, 4.650e+2
-1.457, -8.434e-5, 2.264e-2, 4.656e+2
-1.396, -7.864e-5, 1.877e-2, 4.662e+2
-1.335, -7.297e-5, 2.309e-2, 4.668e+2
-1.274, -6.740e-5, 1.815e-2, 4.674e+2
-1.213, -6.191e-5, 2.078e-2, 4.680e+2
-1.152, -5.624e-5, 1.961e-2, 4.686e+2
-1.091, -5.060e-5, 2.080e-2, 4.692e+2
-1.030, -4.494e-5, 1.767e-2, 4.699e+2
-0.969, -3.933e-5, 2.026e-2, 4.705e+2
-0.908, -3.387e-5, 1.640e-2, 4.711e+2
-0.847, -2.867e-5, 2.209e-2, 4.717e+2
-0.786, -2.386e-5, 1.666e-2, 4.723e+2
-0.725, -1.945e-5, 2.218e-2, 4.729e+2
-0.664, -1.552e-5, 1.866e-2, 4.735e+2
-0.603, -1.204e-5, 2.036e-2, 4.741e+2
-0.542, -9.292e-6, 2.021e-2, 4.747e+2
-0.481, -6.988e-6, 1.914e-2, 4.754e+2
-0.420, -5.235e-6, 1.852e-2, 4.760e+2
-0.359, -3.870e-6, 2.018e-2, 4.766e+2
-0.298, -2.745e-6, 1.823e-2, 4.772e+2
-0.237, -1.816e-6, 2.136e-2, 4.778e+2
-0.176, -9.367e-7, 1.764e-2, 4.784e+2
-0.115, -1.732e-7, 2.216e-2, 4.790e+2
-0.054, 4.291e-7, 1.943e-2, 4.796e+2
-0.007, 5.983e-7, 1.890e-2, 4.802e+2
-0.068, -3.129e-7, 1.661e-2, 4.808e+2
-0.129, -1.182e-6, 1.837e-2, 4.815e+2
-0.190, -1.998e-6, 1.724e-2, 4.821e+2
-0.251, -2.965e-6, 2.032e-2, 4.827e+2
-0.312, -3.949e-6, 1.809e-2, 4.833e+2
-0.373, -5.078e-6, 2.044e-2, 4.839e+2
-0.434, -6.393e-6, 2.374e-2, 4.845e+2
-0.495, -8.118e-6, 2.157e-2, 4.851e+2
-0.556, -1.029e-5, 1.905e-2, 4.857e+2
-0.617, -1.319e-5, 1.961e-2, 4.863e+2
-0.678, -1.676e-5, 1.739e-2, 4.870e+2
-0.739, -2.102e-5, 1.856e-2, 4.876e+2
-0.800, -2.579e-5, 2.029e-2, 4.882e+2
-0.861, -3.121e-5, 1.999e-2, 4.888e+2
-0.922, -3.709e-5, 1.906e-2, 4.894e+2
-0.983, -4.382e-5, 1.955e-2, 4.900e+2
-1.044, -5.109e-5, 1.933e-2, 4.906e+2
-1.105, -5.900e-5, 2.043e-2, 4.912e+2
-1.166, -6.736e-5, 2.014e-2, 4.918e+2
-1.227, -7.637e-5, 1.792e-2, 4.924e+2
-1.288, -8.563e-5, 1.972e-2, 4.931e+2
-1.349, -9.562e-5, 1.939e-2, 4.937e+2
-1.410, -1.058e-4, 2.159e-2, 4.943e+2
-1.471, -1.157e-4, 2.225e-2, 4.949e+2
-1.532, -1.265e-4, 2.729e-2, 4.955e+2
-1.593, -1.407e-4, 2.837e-2, 4.961e+2
-1.654, -1.533e-4, 3.627e-2, 4.967e+2
-1.715, -1.610e-4, 4.820e-2, 4.973e+2
-1.776, -1.661e-4, 7.014e-2, 4.979e+2
-1.837, -1.700e-4, 1.013e-1, 4.986e+2
-1.898, -1.733e-4, 1.517e-1, 4.992e+2
-1.959, -1.761e-4, 2.495e-1, 4.998e+2
-1.980, -1.676e-4, 2.287e-1, 5.004e+2
-1.919, -1.485e-4, 1.112e-1, 5.010e+2
-1.858, -1.352e-4, 6.431e-2, 5.016e+2
-1.797, -1.245e-4, 4.303e-2, 5.022e+2
-1.736, -1.154e-4, 3.649e-2, 5.028e+2
-1.675, -1.071e-4, 2.653e-2, 5.034e+2
-1.614, -9.884e-5, 2.624e-2, 5.041e+2
-1.553, -9.063e-5, 2.176e-2, 5.047e+2
-1.492, -8.386e-5, 2.179e-2, 5.053e+2
-1.431, -7.797e-5, 2.016e-2, 5.059e+2
-1.370, -7.243e-5, 1.973e-2, 5.065e+2
-1.309, -6.699e-5, 2.194e-2, 5.071e+2
-1.248, -6.176e-5, 1.874e-2, 5.077e+2
-1.187, -5.637e-5, 1.935e-2, 5.083e+2
-1.126, -5.108e-5, 1.860e-2, 5.089e+2
-1.065, -4.564e-5, 1.953e-2, 5.095e+2
-1.004, -4.037e-5, 2.040e-2, 5.102e+2
-0.943, -3.509e-5, 1.972e-2, 5.108e+2
-0.882, -3.009e-5, 1.754e-2, 5.114e+2
-0.821, -2.533e-5, 1.955e-2, 5.120e+2
-0.760, -2.103e-5, 1.753e-2, 5.126e+2
-0.699, -1.700e-5, 2.018e-2, 5.132e+2
-0.638, -1.354e-5, 1.605e-2, 5.138e+2
-0.577, -1.044e-5, 2.052e-2, 5.144e+2
-0.516, -7.998e-6, 1.717e-2, 5.150e+2
-0.455, -6.054e-6, 2.131e-2, 5.157e+2
-0.394, -4.559e-6, 1.908e-2, 5.163e+2
-0.333, -3.318e-6, 2.070e-2, 5.169e+2
-0.272, -2.299e-6, 1.705e-2, 5.175e+2
-0.211, -1.383e-6, 1.951e-2, 5.181e+2
-0.150, -6.149e-7, 1.723e-2, 5.187e+2
-0.089, 7.843e-8, 2.073e-2, 5.193e+2
-0.028, 6.457e-7, 1.755e-2, 5.199e+2
-0.033, 1.849e-7, 2.176e-2, 5.205e+2
-0.094, -6.592e-7, 1.736e-2, 5.211e+2
-0.155, -1.531e-6, 2.247e-2, 5.218e+2
-0.216, -2.406e-6, 1.740e-2, 5.224e+2
-0.277, -3.332e-6, 2.122e-2, 5.230e+2
-0.338, -4.351e-6, 1.713e-2, 5.236e+2
-0.399, -5.489e-6, 1.855e-2, 5.242e+2
-0.460, -6.914e-6, 1.832e-2, 5.248e+2
-0.521, -8.675e-6, 2.116e-2, 5.254e+2
-0.582, -1.096e-5, 1.866e-2, 5.260e+2
-0.643, -1.389e-5, 2.167e-2, 5.266e+2
-0.704, -1.754e-5, 1.857e-2, 5.273e+2
-0.765, -2.170e-5, 2.058e-2, 5.279e+2
-0.826, -2.627e-5, 1.858e-2, 5.285e+2
-0.887, -3.135e-5, 2.101e-2, 5.291e+2
-0.948, -3.701e-5, 1.763e-2, 5.297e+2
-1.009, -4.326e-5, 2.020e-2, 5.303e+2
-1.070, -5.008e-5, 1.940e-2, 5.309e+2
-1.131, -5.754e-5, 2.201e-2, 5.315e+2
-1.192, -6.538e-5, 1.888e-2, 5.321e+2
-1.253, -7.370e-5, 2.001e-2, 5.327e+2
-1.314, -8.255e-5, 1.906e-2, 5.334e+2
-1.375, -9.198e-5, 1.995e-2, 5.340e+2
-1.436, -1.014e-4, 2.044e-2, 5.346e+2
-1.497, -1.110e-4, 2.244e-2, 5.352e+2
-1.558, -1.227e-4, 2.432e-2, 5.358e+2
-1.619, -1.367e-4, 3.038e-2, 5.364e+2
-1.680, -1.472e-4, 4.064e-2, 5.370e+2
-1.741, -1.541e-4, 5.588e-2, 5.376e+2
-1.802, -1.594e-4, 7.950e-2, 5.382e+2
-1.863, -1.638e-4, 1.247e-1, 5.389e+2
-1.924, -1.676e-4, 1.939e-1, 5.395e+2
-1.985, -1.709e-4, 3.045e-1, 5.401e+2
-1.954, -1.528e-4, 1.635e-1, 5.407e+2
-1.893, -1.374e-4, 8.611e-2, 5.413e+2
-1.832, -1.256e-4, 5.741e-2, 5.419e+2
-1.771, -1.160e-4, 4.007e-2, 5.425e+2
-1.710, -1.073e-4, 3.033e-2, 5.431e+2
-1.649, -9.933e-5, 2.576e-2, 5.437e+2
-1.588, -9.108e-5, 2.365e-2, 5.443e+2
-1.527, -8.366e-5, 2.102e-2, 5.450e+2
-1.466, -7.742e-5, 2.095e-2, 5.456e+2
-1.405, -7.194e-5, 2.109e-2, 5.462e+2
-1.344, -6.657e-5, 2.076e-2, 5.468e+2
-1.283, -6.152e-5, 1.761e-2, 5.474e+2
-1.222, -5.637e-5, 2.048e-2, 5.480e+2
-1.161, -5.135e-5, 1.932e-2, 5.486e+2
-1.100, -4.616e-5, 2.012e-2, 5.492e+2
-1.039, -4.114e-5, 1.869e-2, 5.498e+2
-0.978, -3.617e-5, 2.052e-2, 5.505e+2
-0.917, -3.138e-5, 1.897e-2, 5.511e+2
-0.856, -2.672e-5, 1.928e-2, 5.517e+2
-0.795, -2.244e-5, 1.892e-2, 5.523e+2
-0.734, -1.846e-5, 1.971e-2, 5.529e+2
-0.673, -1.491e-5, 1.686e-2, 5.535e+2
-0.612, -1.170e-5, 1.857e-2, 5.541e+2
-0.551, -9.137e-6, 1.807e-2, 5.547e+2
-0.490, -6.916e-6, 2.153e-2, 5.553e+2
-0.429, -5.292e-6, 1.932e-2, 5.560e+2
-0.368, -3.903e-6, 1.997e-2, 5.566e+2
-0.307, -2.866e-6, 1.737e-2, 5.572e+2
-0.246, -1.844e-6, 1.984e-2, 5.578e+2
-0.185, -1.083e-6, 1.910e-2, 5.584e+2
-0.124, -2.593e-7, 1.986e-2, 5.590e+2
-0.063, 3.221e-7, 1.898e-2, 5.596e+2
-0.002, 9.188e-7, 2.035e-2, 5.602e+2
-0.059, -2.218e-7, 1.924e-2, 5.608e+2
-0.120, -1.008e-6, 1.835e-2, 5.614e+2
-0.181, -1.890e-6, 1.970e-2, 5.621e+2
-0.242, -2.701e-6, 1.851e-2, 5.627e+2
-0.303, -3.716e-6, 1.877e-2, 5.633e+2
-0.364, -4.684e-6, 2.084e-2, 5.639e+2
-0.425, -5.895e-6, 1.977e-2, 5.645e+2
-0.486, -7.385e-6, 1.835e-2, 5.651e+2
-0.547, -9.285e-6, 2.024e-2, 5.657e+2
-0.608, -1.163e-5, 1.708e-2, 5.663e+2
-0.669, -1.470e-5, 2.071e-2, 5.669e+2
-0.730, -1.827e-5, 1.708e-2, 5.676e+2
-0.791, -2.231e-5, 2.085e-2, 5.682e+2
-0.852, -2.668e-5, 1.761e-2, 5.688e+2
-0.913, -3.150e-5, 6.019e-2, 5.694e+2
-0.974, -3.690e-5, 1.747e-2, 5.700e+2
-1.035, -4.278e-5, 2.061e-2, 5.706e+2
-1.096, -4.929e-5, 1.738e-2, 5.712e+2
-1.157, -5.620e-5, 1.958e-2, 5.718e+2
-1.218, -6.368e-5, 1.849e-2, 5.724e+2
-1.279, -7.145e-5, 1.999e-2, 5.730e+2
-1.340, -7.996e-5, 1.857e-2, 5.737e+2
-1.401, -8.875e-5, 2.170e-2, 5.743e+2
-1.462, -9.772e-5, 2.065e-2, 5.749e+2
-1.523, -1.074e-4, 2.420e-2, 5.755e+2
-1.584, -1.200e-4, 2.771e-2, 5.761e+2
-1.645, -1.325e-4, 3.496e-2, 5.767e+2
-1.706, -1.414e-4, 4.572e-2, 5.773e+2
-1.767, -1.479e-4, 6.536e-2, 5.779e+2
-1.828, -1.535e-4, 9.110e-2, 5.785e+2
-1.889, -1.582e-4, 1.439e-1, 5.792e+2
-1.950, -1.624e-4, 2.420e-1, 5.798e+2
-1.989, -1.596e-4, 2.783e-1, 5.804e+2
-1.928, -1.403e-4, 1.194e-1, 5.810e+2
-1.867, -1.270e-4, 7.138e-2, 5.816e+2
-1.806, -1.167e-4, 4.426e-2, 5.822e+2
-1.745, -1.077e-4, 3.192e-2, 5.828e+2
-1.684, -9.954e-5, 3.213e-2, 5.834e+2
-1.623, -9.167e-5, 2.382e-2, 5.840e+2
-1.562, -8.382e-5, 2.412e-2, 5.846e+2
-1.501, -7.706e-5, 2.026e-2, 5.853e+2
-1.440, -7.149e-5, 2.282e-2, 5.859e+2
-1.379, -6.625e-5, 1.774e-2, 5.865e+2
-1.318, -6.121e-5, 2.035e-2, 5.871e+2
-1.257, -5.633e-5, 1.853e-2, 5.877e+2
-1.196, -5.146e-5, 2.100e-2, 5.883e+2
-1.135, -4.662e-5, 1.734e-2, 5.889e+2
-1.074, -4.174e-5, 2.083e-2, 5.895e+2
-1.013, -3.708e-5, 1.777e-2, 5.901e+2
-0.952, -3.242e-5, 2.112e-2, 5.908e+2
-0.891, -2.797e-5, 1.720e-2, 5.914e+2
-0.830, -2.378e-5, 2.104e-2, 5.920e+2
-0.769, -1.981e-5, 1.807e-2, 5.926e+2
-0.708, -1.623e-5, 2.132e-2, 5.932e+2
-0.647, -1.305e-5, 1.792e-2, 5.938e+2
-0.586, -1.022e-5, 1.991e-2, 5.944e+2
-0.525, -7.921e-6, 1.699e-2, 5.950e+2
-0.464, -6.015e-6, 2.044e-2, 5.956e+2
-0.403, -4.604e-6, 1.700e-2, 5.963e+2
-0.342, -3.376e-6, 2.078e-2, 5.969e+2
-0.281, -2.381e-6, 1.850e-2, 5.975e+2
-0.220, -1.503e-6, 2.102e-2, 5.981e+2
-0.159, -7.078e-7, 1.969e-2, 5.987e+2
-0.098, 1.445e-8, 2.098e-2, 5.993e+2
-0.037, 5.454e-7, 1.736e-2, 5.999e+2
-0.024, 3.276e-7, 1.992e-2, 6.005e+2
-0.085, -5.860e-7, 1.880e-2, 6.011e+2
-0.146, -1.367e-6, 2.079e-2, 6.017e+2
-0.207, -2.215e-6, 1.795e-2, 6.024e+2
-0.268, -3.061e-6, 2.006e-2, 6.030e+2
-0.329, -4.072e-6, 1.701e-2, 6.036e+2
-0.390, -5.045e-6, 2.029e-2, 6.042e+2
-0.451, -6.302e-6, 1.770e-2, 6.048e+2
-0.512, -7.777e-6, 2.051e-2, 6.054e+2
-0.573, -9.807e-6, 1.848e-2, 6.060e+2
-0.634, -1.223e-5, 2.026e-2, 6.066e+2
-0.695, -1.541e-5, 1.974e-2, 6.072e+2
-0.756, -1.888e-5, 1.980e-2, 6.079e+2
-0.817, -2.283e-5, 1.752e-2, 6.085e+2
-0.878, -2.696e-5, 2.016e-2, 6.091e+2
-0.939, -3.163e-5, 1.728e-2, 6.097e+2
-1.000, -3.670e-5, 2.100e-2, 6.103e+2
-1.061, -4.231e-5, 1.997e-2, 6.109e+2
-1.122, -4.846e-5, 2.034e-2, 6.115e+2
-1.183, -5.508e-5, 1.939e-2, 6.121e+2
-1.244, -6.202e-5, 1.947e-2, 6.127e+2
-1.305, -6.949e-5, 1.696e-2, 6.133e+2
-1.366, -7.753e-5, 2.174e-2, 6.140e+2
-1.427, -8.593e-5, 2.011e-2, 6.146e+2
-1.488, -9.440e-5, 2.273e-2, 6.152e+2
-1.549, -1.047e-4, 2.305e-2, 6.158e+2
-1.610, -1.174e-4, 2.993e-2, 6.164e+2
-1.671, -1.281e-4, 3.539e-2, 6.170e+2
-1.732, -1.359e-4, 5.174e-2, 6.176e+2
-1.793, -1.423e-4, 7.167e-2, 6.182e+2
-1.854, -1.479e-4, 1.108e-1, 6.188e+2
-1.915, -1.531e-4, 1.820e-1, 6.195e+2
-1.976, -1.575e-4, 2.981e-1, 6.201e+2
-1.963, -1.443e-4, 1.811e-1, 6.207e+2
-1.902, -1.289e-4, 9.307e-2, 6.213e+2
-1.841, -1.175e-4, 5.117e-2, 6.219e+2
-1.780, -1.079e-4, 3.850e-2, 6.225e+2
-1.719, -9.971e-5, 2.829e-2, 6.231e+2
-1.658, -9.193e-5, 2.675e-2, 6.237e+2
-1.597, -8.426e-5, 2.455e-2, 6.243e+2
-1.536, -7.696e-5, 2.314e-2, 6.249e+2
-1.475, -7.100e-5, 1.920e-2, 6.256e+2
-1.414, -6.578e-5, 2.177e-2, 6.262e+2
-1.353, -6.088e-5, 1.880e-2, 6.268e+2
-1.292, -5.611e-5, 1.997e-2, 6.274e+2
-1.231, -5.155e-5, 1.939e-2, 6.280e+2
-1.170, -4.687e-5, 2.113e-2, 6.286e+2
-1.109, -4.229e-5, 1.862e-2, 6.292e+2
-1.048, -3.771e-5, 2.561e-2, 6.298e+2
-0.987, -3.338e-5, 1.804e-2, 6.304e+2
-0.926, -2.901e-5, 1.899e-2, 6.311e+2
-0.865, -2.498e-5, 1.719e-2, 6.317e+2
-0.804, -2.107e-5, 2.101e-2, 6.323e+2
-0.743, -1.753e-5, 2.032e-2, 6.329e+2
-0.682, -1.423e-5, 1.997e-2, 6.335e+2
-0.621, -1.140e-5, 1.792e-2, 6.341e+2
-0.560, -8.892e-6, 2.089e-2, 6.347e+2
-0.499, -6.909e-6, 1.866e-2, 6.353e+2
-0.438, -5.223e-6, 1.949e-2, 6.359e+2
-0.377, -3.989e-6, 1.848e-2, 6.365e+2
-0.316, -2.829e-6, 2.133e-2, 6.372e+2
-0.255, -1.984e-6, 1.885e-2, 6.378e+2
-0.194, -1.085e-6, 2.087e-2, 6.384e+2
-0.133, -4.291e-7, 1.882e-2, 6.390e+2
-0.072, 3.128e-7, 1.984e-2, 6.396e+2
-0.011, 7.866e-7, 1.771e-2, 6.402e+2
-0.050, -3.047e-8, 1.970e-2, 6.408e+2
-0.111, -9.287e-7, 1.827e-2, 6.414e+2
-0.172, -1.693e-6, 1.977e-2, 6.420e+2
-0.233, -2.552e-6, 1.953e-2, 6.427e+2
-0.294, -3.405e-6, 1.942e-2, 6.433e+2
-0.355, -4.377e-6, 2.063e-2, 6.439e+2
-0.416, -5.376e-6, 1.864e-2, 6.445e+2
-0.477, -6.756e-6, 1.878e-2, 6.451e+2
-0.538, -8.316e-6, 1.849e-2, 6.457e+2
-0.599, -1.042e-5, 1.958e-2, 6.463e+2
-0.660, -1.295e-5, 1.972e-2, 6.469e+2
-0.721, -1.611e-5, 2.060e-2, 6.475e+2
-0.782, -1.947e-5, 1.699e-2, 6.482e+2
-0.843, -2.328e-5, 1.862e-2, 6.488e+2
-0.904, -2.723e-5, 1.792e-2, 6.494e+2
-0.965, -3.171e-5, 2.014e-2, 6.500e+2
-1.026, -3.659e-5, 1.888e-2, 6.506e+2
-1.087, -4.193e-5, 2.120e-2, 6.512e+2
-1.148, -4.784e-5, 1.931e-2, 6.518e+2
-1.209, -5.404e-5, 2.021e-2, 6.524e+2
-1.270, -6.073e-5, 1.855e-2, 6.530e+2
-1.331, -6.791e-5, 2.056e-2, 6.536e+2
-1.392, -7.563e-5, 1.855e-2, 6.543e+2
-1.453, -8.348e-5, 2.322e-2, 6.549e+2
-1.514, -9.198e-5, 2.087e-2, 6.555e+2
-1.575, -1.029e-4, 2.541e-2, 6.561e+2
-1.636, -1.149e-4, 3.080e-2, 6.567e+2
-1.697, -1.240e-4, 3.832e-2, 6.573e+2
-1.758, -1.312e-4, 5.302e-2, 6.579e+2
-1.819, -1.375e-4, 8.693e-2, 6.585e+2
-1.880, -1.433e-4, 1.345e-1, 6.591e+2
-1.941, -1.485e-4, 2.223e-1, 6.598e+2
-1.998, -1.518e-4, 3.257e-1, 6.604e+2
-1.937, -1.317e-4, 1.295e-1, 6.610e+2
-1.876, -1.188e-4, 7.213e-2, 6.616e+2
-1.815, -1.086e-4, 4.858e-2, 6.622e+2
-1.754, -9.998e-5, 3.268e-2, 6.628e+2
-1.693, -9.223e-5, 2.975e-2, 6.634e+2
-1.632, -8.477e-5, 2.583e-2, 6.640e+2
-1.571, -7.742e-5, 2.385e-2, 6.646e+2
-1.510, -7.086e-5, 1.950e-2, 6.652e+2
-1.449, -6.553e-5, 2.070e-2, 6.659e+2
-1.388, -6.066e-5, 1.768e-2, 6.665e+2
-1.327, -5.602e-5, 2.071e-2, 6.671e+2
-1.266, -5.150e-5, 2.035e-2, 6.677e+2
-1.205, -4.719e-5, 2.090e-2, 6.683e+2
-1.144, -4.271e-5, 1.983e-2, 6.689e+2
-1.083, -3.844e-5, 1.948e-2, 6.695e+2
-1.022, -3.416e-5, 1.955e-2, 6.701e+2
-0.961, -3.007e-5, 1.659e-2, 6.707e+2
-0.900, -2.603e-5, 1.938e-2, 6.714e+2
-0.839, -2.231e-5, 1.782e-2, 6.720e+2
-0.778, -1.872e-5, 2.047e-2, 6.726e+2
-0.717, -1.546e-5, 2.125e-2, 6.732e+2
-0.656, -1.252e-5, 2.013e-2, 6.738e+2
-0.595, -9.960e-6, 1.684e-2, 6.744e+2
-0.534, -7.759e-6, 2.116e-2, 6.750e+2
-0.473, -5.991e-6, 1.690e-2, 6.756e+2
-0.412, -4.536e-6, 2.143e-2, 6.762e+2
-0.351, -3.441e-6, 1.727e-2, 6.768e+2
-0.290, -2.441e-6, 2.095e-2, 6.775e+2
-0.229, -1.583e-6, 1.855e-2, 6.781e+2
-0.168, -8.032e-7, 1.975e-2, 6.787e+2
-0.107, -4.216e-8, 1.760e-2, 6.793e+2
-0.046, 5.165e-7, 1.900e-2, 6.799e+2
-0.015, 4.888e-7, 1.883e-2, 6.805e+2
-0.076, -4.359e-7, 2.021e-2, 6.811e+2
-0.137, -1.219e-6, 1.922e-2, 6.817e+2
-0.198, -2.072e-6, 2.013e-2, 6.823e+2
-0.259, -2.802e-6, 1.974e-2, 6.830e+2
-0.320, -3.802e-6, 1.824e-2, 6.836e+2
-0.381, -4.677e-6, 1.935e-2, 6.842e+2
-0.442, -5.827e-6, 1.898e-2, 6.848e+2
-0.503, -7.091e-6, 1.967e-2, 6.854e+2
-0.564, -8.901e-6, 1.790e-2, 6.860e+2
-0.625, -1.096e-5, 2.097e-2, 6.866e+2
-0.686, -1.371e-5, 1.659e-2, 6.872e+2
-0.747, -1.671e-5, 1.854e-2, 6.878e+2
-0.808, -2.010e-5, 1.755e-2, 6.885e+2
-0.869, -2.369e-5, 1.996e-2, 6.891e+2
-0.930, -2.754e-5, 1.871e-2, 6.897e+2
-0.991, -3.185e-5, 2.244e-2, 6.903e+2
-1.052, -3.654e-5, 1.790e-2, 6.909e+2
-1.113, -4.170e-5, 2.226e-2, 6.915e+2
-1.174, -4.734e-5, 1.767e-2, 6.921e+2
-1.235, -5.330e-5, 1.946e-2, 6.927e+2
-1.296, -5.973e-5, 1.873e-2, 6.933e+2
-1.357, -6.664e-5, 2.230e-2, 6.939e+2
-1.418, -7.396e-5, 2.129e-2, 6.946e+2
-1.479, -8.159e-5, 2.047e-2, 6.952e+2
-1.540, -9.040e-5, 2.217e-2, 6.958e+2
-1.601, -1.018e-4, 2.803e-2, 6.964e+2
-1.662, -1.123e-4, 3.585e-2, 6.970e+2
-1.723, -1.204e-4, 4.432e-2, 6.976e+2
-1.784, -1.271e-4, 6.651e-2, 6.982e+2
-1.845, -1.335e-4, 1.030e-1, 6.988e+2
-1.906, -1.393e-4, 1.810e-1, 6.994e+2
-1.967, -1.447e-4, 2.748e-1, 7.001e+2
-1.972, -1.361e-4, 2.112e-1, 7.007e+2
-1.911, -1.209e-4, 9.202e-2, 7.013e+2
-1.850, -1.097e-4, 6.053e-2, 7.019e+2
-1.789, -1.005e-4, 3.818e-2, 7.025e+2
-1.728, -9.250e-5, 3.397e-2, 7.031e+2
-1.667, -8.527e-5, 2.571e-2, 7.037e+2
-1.606, -7.806e-5, 2.665e-2, 7.043e+2
-1.545, -7.109e-5, 1.867e-2, 7.049e+2
-1.484, -6.536e-5, 2.325e-2, 7.055e+2
-1.423, -6.052e-5, 1.673e-2, 7.062e+2
-1.362, -5.592e-5, 2.153e-2, 7.068e+2
-1.301, -5.152e-5, 1.840e-2, 7.074e+2
-1.240, -4.732e-5, 2.027e-2, 7.080e+2
-1.179, -4.306e-5, 1.781e-2, 7.086e+2
-1.118, -3.898e-5, 1.908e-2, 7.092e+2
-1.057, -3.487e-5, 1.669e-2, 7.098e+2
-0.996, -3.095e-5, 1.952e-2, 7.104e+2
-0.935, -2.706e-5, 1.876e-2, 7.110e+2
-0.874, -2.341e-5, 2.066e-2, 7.117e+2
-0.813, -1.985e-5, 1.873e-2, 7.123e+2
-0.752, -1.668e-5, 1.810e-2, 7.129e+2
-0.691, -1.361e-5, 1.897e-2, 7.135e+2
-0.630, -1.101e-5, 1.827e-2, 7.141e+2
-0.569, -8.662e-6, 2.070e-2, 7.147e+2
-0.508, -6.770e-6, 1.863e-2, 7.153e+2
-0.447, -5.158e-6, 2.073e-2, 7.159e+2
-0.386, -3.989e-6, 1.691e-2, 7.165e+2
-0.325, -2.868e-6, 2.112e-2, 7.171e+2
-0.264, -2.042e-6, 1.719e-2, 7.178e+2
-0.203, -1.164e-6, 2.000e-2, 7.184e+2
-0.142, -4.562e-7, 1.862e-2, 7.190e+2
-0.081, 2.107e-7, 2.067e-2, 7.196e+2
-0.020, 7.447e-7, 1.807e-2, 7.202e+2
-0.041, 6.059e-8, 1.974e-2, 7.208e+2
-0.102, -7.355e-7, 1.544e-2, 7.214e+2
-0.163, -1.514e-6, 2.006e-2, 7.220e+2
-0.224, -2.371e-6, 1.795e-2, 7.226e+2
-0.285, -3.159e-6, 2.157e-2, 7.233e+2
-0.346, -4.060e-6, 1.929e-2, 7.239e+2
-0.407, -5.045e-6, 2.015e-2, 7.245e+2
-0.468, -6.116e-6, 1.749e-2, 7.251e+2
-0.529, -7.613e-6, 1.808e-2, 7.257e+2
-0.590, -9.398e-6, 1.704e-2, 7.263e+2
-0.651, -1.167e-5, 2.156e-2, 7.269e+2
-0.712, -1.431e-5, 1.862e-2, 7.275e+2
-0.773, -1.739e-5, 1.899e-2, 7.281e+2
-0.834, -2.055e-5, 1.885e-2, 7.287e+2
-0.895, -2.407e-5, 1.841e-2, 7.294e+2
-0.956, -2.772e-5, 1.962e-2, 7.300e+2
-1.017, -3.197e-5, 1.820e-2, 7.306e+2
-1.078, -3.647e-5, 2.128e-2, 7.312e+2
-1.139, -4.146e-5, 1.883e-2, 7.318e+2
-1.200, -4.687e-5, 2.133e-2, 7.324e+2
-1.261, -5.261e-5, 1.780e-2, 7.330e+2
-1.322, -5.878e-5, 1.973e-2, 7.336e+2
-1.383, -6.553e-5, 1.791e-2, 7.342e+2
-1.444, -7.252e-5, 2.138e-2, 7.349e+2
-1.505, -8.002e-5, 1.993e-2, 7.355e+2
-1.566, -8.948e-5, 2.728e-2, 7.361e+2
-1.627, -1.005e-4, 2.719e-2, 7.367e+2
-1.688, -1.096e-4, 3.951e-2, 7.373e+2
-1.749, -1.169e-4, 4.739e-2, 7.379e+2
-1.810, -1.234e-4, 7.944e-2, 7.385e+2
-1.871, -1.297e-4, 1.220e-1, 7.391e+2
-1.932, -1.356e-4, 2.129e-1, 7.397e+2
-1.993, -1.412e-4, 3.459e-1, 7.404e+2
-1.946, -1.236e-4, 1.427e-1, 7.410e+2
-1.885, -1.110e-4, 7.347e-2, 7.416e+2
-1.824, -1.012e-4, 4.760e-2, 7.422e+2
-1.763, -9.287e-5, 3.204e-2, 7.428e+2
-1.702, -8.554e-5, 2.875e-2, 7.434e+2
-1.641, -7.859e-5, 2.491e-2, 7.440e+2
-1.580, -7.166e-5, 2.184e-2, 7.446e+2
-1.519, -6.538e-5, 2.151e-2, 7.452e+2
-1.458, -6.039e-5, 1.851e-2, 7.458e+2
-1.397, -5.575e-5, 2.082e-2, 7.465e+2
-1.336, -5.152e-5, 1.744e-2, 7.471e+2
-1.275, -4.735e-5, 2.210e-2, 7.477e+2
-1.214, -4.338e-5, 1.789e-2, 7.483e+2
-1.153, -3.937e-5, 2.224e-2, 7.489e+2
-1.092, -3.548e-5, 1.756e-2, 7.495e+2
-1.031, -3.169e-5, 1.907e-2, 7.501e+2
-0.970, -2.793e-5, 1.721e-2, 7.507e+2
-0.909, -2.436e-5, 2.104e-2, 7.513e+2
-0.848, -2.096e-5, 1.767e-2, 7.520e+2
-0.787, -1.771e-5, 2.118e-2, 7.526e+2
-0.726, -1.470e-5, 1.664e-2, 7.532e+2
-0.665, -1.201e-5, 1.989e-2, 7.538e+2
-0.604, -9.642e-6, 1.816e-2, 7.544e+2
-0.543, -7.567e-6, 2.102e-2, 7.550e+2
-0.482, -5.879e-6, 1.834e-2, 7.556e+2
-0.421, -4.508e-6, 2.053e-2, 7.562e+2
-0.360, -3.387e-6, 1.806e-2, 7.568e+2
-0.299, -2.415e-6, 1.850e-2, 7.574e+2
-0.238, -1.608e-6, 1.823e-2, 7.581e+2
-0.177, -8.358e-7, 1.880e-2, 7.587e+2
-0.116, -1.018e-7, 2.018e-2, 7.593e+2
-0.055, 4.470e-7, 1.881e-2, 7.599e+2
-0.006, 6.887e-7, 2.168e-2, 7.605e+2
-0.067, -3.049e-7, 1.696e-2, 7.611e+2
-0.128, -1.004e-6, 1.957e-2, 7.617e+2
-0.189, -1.858e-6, 1.703e-2, 7.623e+2
-0.250, -2.601e-6, 2.101e-2, 7.629e+2
-0.311, -3.510e-6, 2.041e-2, 7.636e+2
-0.372, -4.325e-6, 1.961e-2, 7.642e+2
-0.433, -5.366e-6, 1.711e-2, 7.648e+2
-0.494, -6.509e-6, 1.962e-2, 7.654e+2
-0.555, -8.048e-6, 1.617e-2, 7.660e+2
-0.616, -9.956e-6, 2.182e-2, 7.666e+2
-0.677, -1.225e-5, 1.760e-2, 7.672e+2
-0.738, -1.494e-5, 2.239e-2, 7.678e+2
-0.799, -1.789e-5, 1.730e-2, 7.684e+2
-0.860, -2.103e-5, 1.908e-2, 7.690e+2
-0.921, -2.434e-5, 1.898e-2, 7.697e+2
-0.982, -2.798e-5, 1.994e-2, 7.703e+2
-1.043, -3.204e-5, 1.880e-2, 7.709e+2
-1.104, -3.650e-5, 2.086e-2, 7.715e+2
-1.165, -4.124e-5, 1.799e-2, 7.721e+2
-1.226, -4.651e-5, 1.917e-2, 7.727e+2
-1.287, -5.202e-5, 1.815e-2, 7.733e+2
-1.348, -5.814e-5, 1.927e-2, 7.739e+2
-1.409, -6.455e-5, 2.043e-2, 7.745e+2
-1.470, -7.131e-5, 2.046e-2, 7.752e+2
-1.531, -7.901e-5, 2.300e-2, 7.758e+2
-1.592, -8.904e-5, 2.502e-2, 7.764e+2
-1.653, -9.903e-5, 3.206e-2, 7.770e+2
-1.714, -1.071e-4, 4.078e-2, 7.776e+2
-1.775, -1.139e-4, 5.888e-2, 7.782e+2
-1.836, -1.204e-4, 9.299e-2, 7.788e+2
-1.897, -1.265e-4, 1.562e-1, 7.794e+2
-1.958, -1.327e-4, 2.599e-1, 7.800e+2
-1.981, -1.285e-4, 2.411e-1, 7.807e+2
-1.920, -1.132e-4, 1.042e-1, 7.813e+2
-1.859, -1.023e-4, 6.085e-2, 7.819e+2
-1.798, -9.357e-5, 4.245e-2, 7.825e+2
-1.737, -8.593e-5, 3.311e-2, 7.831e+2
-1.676, -7.911e-5, 2.343e-2, 7.837e+2
-1.615, -7.239e-5, 2.395e-2, 7.843e+2
-1.554, -6.583e-5, 2.032e-2, 7.849e+2
-1.493, -6.039e-5, 2.308e-2, 7.855e+2
-1.432, -5.577e-5, 2.080e-2, 7.861e+2
-1.371, -5.152e-5, 2.226e-2, 7.868e+2
-1.310, -4.749e-5, 1.705e-2, 7.874e+2
-1.249, -4.359e-5, 2.064e-2, 7.880e+2
-1.188, -3.971e-5, 1.956e-2, 7.886e+2
-1.127, -3.606e-5, 1.960e-2, 7.892e+2
-1.066, -3.235e-5, 1.916e-2, 7.898e+2
-1.005, -2.882e-5, 1.854e-2, 7.904e+2
-0.944, -2.525e-5, 1.848e-2, 7.910e+2
-0.883, -2.197e-5, 1.752e-2, 7.916e+2
-0.822, -1.876e-5, 1.899e-2, 7.923e+2
-0.761, -1.582e-5, 1.805e-2, 7.929e+2
-0.700, -1.303e-5, 1.932e-2, 7.935e+2
-0.639, -1.059e-5, 1.703e-2, 7.941e+2
-0.578, -8.442e-6, 1.850e-2, 7.947e+2
-0.517, -6.633e-6, 1.673e-2, 7.953e+2
-0.456, -5.096e-6, 2.122e-2, 7.959e+2
-0.395, -3.929e-6, 1.720e-2, 7.965e+2
-0.334, -2.907e-6, 2.185e-2, 7.971e+2
-0.273, -2.037e-6, 1.585e-2, 7.977e+2
-0.212, -1.231e-6, 1.964e-2, 7.984e+2
-0.151, -5.337e-7, 1.648e-2, 7.990e+2
-0.090, 1.332e-7, 2.091e-2, 7.996e+2
-0.029, 6.715e-7, 1.813e-2, 8.002e+2
-0.002, 9.256e-7, 1.970e-2, 8.005e+2