File: data/FL/FL/2023.4.27/9号b-cds.txt
Apr. 27, 2023   12:22:54
Cyclic Voltammetry
File: 9Data Source:  Experiment
Instrument Model:  CHI660E
Ref. Electrode: Ag/AgCl
Header:
Note:

Init E (V) = 0
High E (V) = 0
Low E (V) = -2
Init P/N = N
Scan Rate (V/s) = 0.1
Segment = 40
Sample Interval (V) = 0.001
Quiet Time (sec) = 5
Sensitivity (A/V) = 0.001

Segment 1:

Segment 2:

Segment 3:

Segment 4:

Segment 5:

Segment 6:

Segment 7:

Segment 8:

Segment 9:

Segment 10:

Segment 11:

Segment 12:

Segment 13:

Segment 14:

Segment 15:

Segment 16:

Segment 17:

Segment 18:

Segment 19:

Segment 20:

Segment 21:

Segment 22:

Segment 23:

Segment 24:

Segment 25:

Segment 26:

Segment 27:

Segment 28:

Segment 29:

Segment 30:

Segment 31:

Segment 32:

Segment 33:

Segment 34:

Segment 35:

Segment 36:

Segment 37:

Segment 38:

Segment 39:

Segment 40:

Potential/V, Current/A, Voltage/V, Time/s

0.000, -8.063e-7, 2.829e-2, 1.000e-2
-0.022, -1.127e-6, 2.711e-2, 2.300e-1
-0.044, -1.458e-6, 2.630e-2, 4.500e-1
-0.066, -1.796e-6, 2.625e-2, 6.700e-1
-0.088, -2.292e-6, 2.763e-2, 8.900e-1
-0.110, -2.846e-6, 2.678e-2, 1.110e+0
-0.132, -3.465e-6, 2.623e-2, 1.330e+0
-0.154, -4.181e-6, 2.617e-2, 1.550e+0
-0.176, -4.984e-6, 2.688e-2, 1.770e+0
-0.198, -5.868e-6, 2.757e-2, 1.990e+0
-0.220, -6.960e-6, 2.636e-2, 2.210e+0
-0.242, -8.351e-6, 2.617e-2, 2.430e+0
-0.264, -1.006e-5, 2.622e-2, 2.650e+0
-0.286, -1.218e-5, 2.651e-2, 2.870e+0
-0.308, -1.477e-5, 2.582e-2, 3.090e+0
-0.330, -1.777e-5, 2.648e-2, 3.310e+0
-0.352, -2.102e-5, 2.590e-2, 3.530e+0
-0.374, -2.458e-5, 2.569e-2, 3.750e+0
-0.396, -2.850e-5, 2.619e-2, 3.970e+0
-0.418, -3.291e-5, 2.533e-2, 4.190e+0
-0.440, -3.807e-5, 2.534e-2, 4.410e+0
-0.462, -4.413e-5, 2.517e-2, 4.630e+0
-0.484, -5.127e-5, 2.503e-2, 4.850e+0
-0.506, -5.956e-5, 2.527e-2, 5.070e+0
-0.528, -6.902e-5, 2.583e-2, 5.290e+0
-0.550, -7.978e-5, 2.477e-2, 5.510e+0
-0.572, -9.174e-5, 2.435e-2, 5.730e+0
-0.594, -1.052e-4, 2.484e-2, 5.950e+0
-0.616, -1.204e-4, 2.577e-2, 6.170e+0
-0.638, -1.375e-4, 2.501e-2, 6.390e+0
-0.660, -1.568e-4, 2.529e-2, 6.610e+0
-0.682, -1.784e-4, 2.584e-2, 6.830e+0
-0.704, -2.022e-4, 2.536e-2, 7.050e+0
-0.726, -2.279e-4, 2.645e-2, 7.270e+0
-0.748, -2.554e-4, 2.929e-2, 7.490e+0
-0.770, -2.841e-4, 3.237e-2, 7.710e+0
-0.792, -3.129e-4, 4.415e-2, 7.930e+0
-0.814, -3.398e-4, 6.016e-2, 8.150e+0
-0.836, -3.619e-4, 8.836e-2, 8.370e+0
-0.858, -3.760e-4, 1.354e-1, 8.590e+0
-0.880, -3.822e-4, 1.924e-1, 8.810e+0
-0.902, -3.856e-4, 2.518e-1, 9.030e+0
-0.924, -3.908e-4, 2.996e-1, 9.250e+0
-0.946, -3.984e-4, 3.413e-1, 9.470e+0
-0.968, -4.061e-4, 3.635e-1, 9.690e+0
-0.990, -4.135e-4, 3.904e-1, 9.910e+0
-1.012, -4.217e-4, 3.974e-1, 1.013e+1
-1.034, -4.316e-4, 4.005e-1, 1.035e+1
-1.056, -4.416e-4, 3.844e-1, 1.057e+1
-1.078, -4.504e-4, 3.650e-1, 1.079e+1
-1.100, -4.569e-4, 3.611e-1, 1.101e+1
-1.122, -4.614e-4, 3.616e-1, 1.123e+1
-1.144, -4.647e-4, 3.772e-1, 1.145e+1
-1.166, -4.668e-4, 3.756e-1, 1.167e+1
-1.188, -4.681e-4, 3.821e-1, 1.189e+1
-1.210, -4.681e-4, 3.804e-1, 1.211e+1
-1.232, -4.671e-4, 3.746e-1, 1.233e+1
-1.254, -4.654e-4, 3.662e-1, 1.255e+1
-1.276, -4.628e-4, 3.502e-1, 1.277e+1
-1.298, -4.594e-4, 3.336e-1, 1.299e+1
-1.320, -4.556e-4, 3.358e-1, 1.321e+1
-1.342, -4.510e-4, 3.188e-1, 1.343e+1
-1.364, -4.461e-4, 3.013e-1, 1.365e+1
-1.386, -4.407e-4, 2.824e-1, 1.387e+1
-1.408, -4.351e-4, 2.527e-1, 1.409e+1
-1.430, -4.290e-4, 2.195e-1, 1.431e+1
-1.452, -4.229e-4, 1.942e-1, 1.453e+1
-1.474, -4.169e-4, 1.774e-1, 1.475e+1
-1.496, -4.112e-4, 1.670e-1, 1.497e+1
-1.518, -4.061e-4, 1.534e-1, 1.519e+1
-1.540, -4.016e-4, 1.368e-1, 1.541e+1
-1.562, -3.977e-4, 1.292e-1, 1.563e+1
-1.584, -3.941e-4, 1.194e-1, 1.585e+1
-1.606, -3.911e-4, 1.165e-1, 1.607e+1
-1.628, -3.890e-4, 1.108e-1, 1.629e+1
-1.650, -3.881e-4, 1.038e-1, 1.651e+1
-1.672, -3.888e-4, 9.960e-2, 1.673e+1
-1.694, -3.913e-4, 9.738e-2, 1.695e+1
-1.716, -3.958e-4, 9.854e-2, 1.717e+1
-1.738, -4.022e-4, 9.573e-2, 1.739e+1
-1.760, -4.104e-4, 1.063e-1, 1.761e+1
-1.782, -4.204e-4, 1.054e-1, 1.783e+1
-1.804, -4.314e-4, 1.072e-1, 1.805e+1
-1.826, -4.424e-4, 1.219e-1, 1.827e+1
-1.848, -4.529e-4, 1.309e-1, 1.849e+1
-1.870, -4.617e-4, 1.390e-1, 1.871e+1
-1.892, -4.685e-4, 1.689e-1, 1.893e+1
-1.914, -4.730e-4, 2.101e-1, 1.915e+1
-1.936, -4.770e-4, 2.448e-1, 1.937e+1
-1.958, -4.819e-4, 3.027e-1, 1.959e+1
-1.980, -4.875e-4, 3.613e-1, 1.981e+1
-1.998, -4.839e-4, 3.856e-1, 2.003e+1
-1.976, -4.238e-4, 3.519e-1, 2.025e+1
-1.954, -3.847e-4, 3.213e-1, 2.047e+1
-1.932, -3.563e-4, 2.852e-1, 2.069e+1
-1.910, -3.347e-4, 2.516e-1, 2.091e+1
-1.888, -3.177e-4, 2.193e-1, 2.113e+1
-1.866, -3.039e-4, 1.889e-1, 2.135e+1
-1.844, -2.925e-4, 1.735e-1, 2.157e+1
-1.822, -2.827e-4, 1.594e-1, 2.179e+1
-1.800, -2.742e-4, 1.428e-1, 2.201e+1
-1.778, -2.669e-4, 1.365e-1, 2.223e+1
-1.756, -2.603e-4, 1.214e-1, 2.245e+1
-1.734, -2.544e-4, 1.070e-1, 2.267e+1
-1.712, -2.490e-4, 1.090e-1, 2.289e+1
-1.690, -2.439e-4, 1.124e-1, 2.311e+1
-1.668, -2.394e-4, 1.015e-1, 2.333e+1
-1.646, -2.350e-4, 1.028e-1, 2.355e+1
-1.624, -2.309e-4, 9.458e-2, 2.377e+1
-1.602, -2.270e-4, 9.515e-2, 2.399e+1
-1.580, -2.234e-4, 9.066e-2, 2.421e+1
-1.558, -2.199e-4, 9.042e-2, 2.443e+1
-1.536, -2.165e-4, 8.375e-2, 2.465e+1
-1.514, -2.132e-4, 8.656e-2, 2.487e+1
-1.492, -2.099e-4, 8.363e-2, 2.509e+1
-1.470, -2.066e-4, 9.082e-2, 2.531e+1
-1.448, -2.033e-4, 8.679e-2, 2.553e+1
-1.426, -1.999e-4, 8.461e-2, 2.575e+1
-1.404, -1.965e-4, 8.285e-2, 2.597e+1
-1.382, -1.930e-4, 8.170e-2, 2.619e+1
-1.360, -1.894e-4, 8.145e-2, 2.641e+1
-1.338, -1.857e-4, 7.408e-2, 2.663e+1
-1.316, -1.819e-4, 7.400e-2, 2.685e+1
-1.294, -1.780e-4, 7.627e-2, 2.707e+1
-1.272, -1.739e-4, 7.713e-2, 2.729e+1
-1.250, -1.697e-4, 7.267e-2, 2.751e+1
-1.228, -1.654e-4, 7.098e-2, 2.773e+1
-1.206, -1.609e-4, 6.620e-2, 2.795e+1
-1.184, -1.564e-4, 6.838e-2, 2.817e+1
-1.162, -1.516e-4, 6.494e-2, 2.839e+1
-1.140, -1.468e-4, 6.349e-2, 2.861e+1
-1.118, -1.420e-4, 5.952e-2, 2.883e+1
-1.096, -1.370e-4, 5.759e-2, 2.905e+1
-1.074, -1.320e-4, 5.616e-2, 2.927e+1
-1.052, -1.269e-4, 6.012e-2, 2.949e+1
-1.030, -1.220e-4, 5.569e-2, 2.971e+1
-1.008, -1.170e-4, 5.639e-2, 2.993e+1
-0.986, -1.120e-4, 5.621e-2, 3.015e+1
-0.964, -1.070e-4, 5.633e-2, 3.037e+1
-0.942, -1.019e-4, 5.970e-2, 3.059e+1
-0.920, -9.674e-5, 5.689e-2, 3.081e+1
-0.898, -9.150e-5, 4.910e-2, 3.103e+1
-0.876, -8.629e-5, 4.691e-2, 3.125e+1
-0.854, -8.120e-5, 4.210e-2, 3.147e+1
-0.832, -7.618e-5, 3.783e-2, 3.169e+1
-0.810, -7.126e-5, 3.114e-2, 3.191e+1
-0.788, -6.631e-5, 3.098e-2, 3.213e+1
-0.766, -6.127e-5, 2.664e-2, 3.235e+1
-0.744, -5.628e-5, 2.627e-2, 3.257e+1
-0.722, -5.143e-5, 2.576e-2, 3.279e+1
-0.700, -4.683e-5, 2.571e-2, 3.301e+1
-0.678, -4.253e-5, 2.449e-2, 3.323e+1
-0.656, -3.855e-5, 2.416e-2, 3.345e+1
-0.634, -3.481e-5, 2.370e-2, 3.367e+1
-0.612, -3.139e-5, 2.500e-2, 3.389e+1
-0.590, -2.818e-5, 2.478e-2, 3.411e+1
-0.568, -2.534e-5, 2.341e-2, 3.433e+1
-0.546, -2.278e-5, 2.314e-2, 3.455e+1
-0.524, -2.041e-5, 2.377e-2, 3.477e+1
-0.502, -1.833e-5, 2.408e-2, 3.499e+1
-0.480, -1.640e-5, 2.453e-2, 3.521e+1
-0.458, -1.472e-5, 2.380e-2, 3.543e+1
-0.436, -1.321e-5, 2.418e-2, 3.565e+1
-0.414, -1.182e-5, 2.312e-2, 3.587e+1
-0.392, -1.057e-5, 2.302e-2, 3.609e+1
-0.370, -9.437e-6, 2.424e-2, 3.631e+1
-0.348, -8.348e-6, 2.288e-2, 3.653e+1
-0.326, -7.375e-6, 2.315e-2, 3.675e+1
-0.304, -6.505e-6, 2.367e-2, 3.697e+1
-0.282, -5.701e-6, 2.341e-2, 3.719e+1
-0.260, -4.956e-6, 2.319e-2, 3.741e+1
-0.238, -4.296e-6, 2.267e-2, 3.763e+1
-0.216, -3.678e-6, 2.221e-2, 3.785e+1
-0.194, -3.132e-6, 2.239e-2, 3.807e+1
-0.172, -2.595e-6, 2.259e-2, 3.829e+1
-0.150, -2.104e-6, 2.257e-2, 3.851e+1
-0.128, -1.634e-6, 2.287e-2, 3.873e+1
-0.106, -1.251e-6, 2.262e-2, 3.895e+1
-0.084, -8.623e-7, 2.429e-2, 3.917e+1
-0.062, -4.710e-7, 2.224e-2, 3.939e+1
-0.040, -1.240e-7, 2.232e-2, 3.961e+1
-0.018, 1.855e-7, 2.159e-2, 3.983e+1
-0.004, -1.324e-8, 2.231e-2, 4.005e+1
-0.026, -8.050e-7, 2.281e-2, 4.027e+1
-0.048, -1.341e-6, 2.295e-2, 4.049e+1
-0.070, -1.840e-6, 2.253e-2, 4.071e+1
-0.092, -2.335e-6, 2.178e-2, 4.093e+1
-0.114, -2.852e-6, 2.253e-2, 4.115e+1
-0.136, -3.413e-6, 2.302e-2, 4.137e+1
-0.158, -4.052e-6, 2.326e-2, 4.159e+1
-0.180, -4.643e-6, 2.286e-2, 4.181e+1
-0.202, -5.437e-6, 2.261e-2, 4.203e+1
-0.224, -6.229e-6, 2.202e-2, 4.225e+1
-0.246, -7.158e-6, 2.299e-2, 4.247e+1
-0.268, -8.200e-6, 2.314e-2, 4.269e+1
-0.290, -9.432e-6, 2.284e-2, 4.291e+1
-0.312, -1.080e-5, 2.206e-2, 4.313e+1
-0.334, -1.238e-5, 2.213e-2, 4.335e+1
-0.356, -1.418e-5, 2.336e-2, 4.357e+1
-0.378, -1.619e-5, 2.286e-2, 4.379e+1
-0.400, -1.842e-5, 2.322e-2, 4.401e+1
-0.422, -2.097e-5, 2.205e-2, 4.423e+1
-0.444, -2.384e-5, 2.268e-2, 4.445e+1
-0.466, -2.712e-5, 2.299e-2, 4.467e+1
-0.488, -3.097e-5, 2.309e-2, 4.489e+1
-0.510, -3.540e-5, 2.372e-2, 4.511e+1
-0.532, -4.066e-5, 2.287e-2, 4.533e+1
-0.554, -4.676e-5, 2.352e-2, 4.555e+1
-0.576, -5.376e-5, 2.393e-2, 4.577e+1
-0.598, -6.177e-5, 2.337e-2, 4.599e+1
-0.620, -7.076e-5, 2.427e-2, 4.621e+1
-0.642, -8.077e-5, 2.273e-2, 4.643e+1
-0.664, -9.174e-5, 2.389e-2, 4.665e+1
-0.686, -1.037e-4, 2.409e-2, 4.687e+1
-0.708, -1.164e-4, 2.402e-2, 4.709e+1
-0.730, -1.295e-4, 2.453e-2, 4.731e+1
-0.752, -1.430e-4, 2.438e-2, 4.753e+1
-0.774, -1.564e-4, 2.690e-2, 4.775e+1
-0.796, -1.684e-4, 3.545e-2, 4.797e+1
-0.818, -1.779e-4, 4.028e-2, 4.819e+1
-0.840, -1.841e-4, 4.991e-2, 4.841e+1
-0.862, -1.885e-4, 6.322e-2, 4.863e+1
-0.884, -1.931e-4, 7.260e-2, 4.885e+1
-0.906, -1.983e-4, 7.304e-2, 4.907e+1
-0.928, -2.037e-4, 8.315e-2, 4.929e+1
-0.950, -2.087e-4, 9.552e-2, 4.951e+1
-0.972, -2.135e-4, 9.136e-2, 4.973e+1
-0.994, -2.184e-4, 9.560e-2, 4.995e+1
-1.016, -2.235e-4, 1.060e-1, 5.017e+1
-1.038, -2.289e-4, 9.876e-2, 5.039e+1
-1.060, -2.344e-4, 9.386e-2, 5.061e+1
-1.082, -2.402e-4, 9.913e-2, 5.083e+1
-1.104, -2.457e-4, 1.040e-1, 5.105e+1
-1.126, -2.513e-4, 1.027e-1, 5.127e+1
-1.148, -2.566e-4, 1.100e-1, 5.149e+1
-1.170, -2.616e-4, 1.132e-1, 5.171e+1
-1.192, -2.661e-4, 1.196e-1, 5.193e+1
-1.214, -2.701e-4, 1.229e-1, 5.215e+1
-1.236, -2.737e-4, 1.268e-1, 5.237e+1
-1.258, -2.767e-4, 1.332e-1, 5.259e+1
-1.280, -2.793e-4, 1.360e-1, 5.281e+1
-1.302, -2.816e-4, 1.383e-1, 5.303e+1
-1.324, -2.834e-4, 1.441e-1, 5.325e+1
-1.346, -2.847e-4, 1.340e-1, 5.347e+1
-1.368, -2.857e-4, 1.303e-1, 5.369e+1
-1.390, -2.862e-4, 1.292e-1, 5.391e+1
-1.412, -2.863e-4, 1.212e-1, 5.413e+1
-1.434, -2.860e-4, 1.250e-1, 5.435e+1
-1.456, -2.854e-4, 1.120e-1, 5.457e+1
-1.478, -2.847e-4, 1.090e-1, 5.479e+1
-1.500, -2.840e-4, 1.029e-1, 5.501e+1
-1.522, -2.836e-4, 1.041e-1, 5.523e+1
-1.544, -2.838e-4, 1.019e-1, 5.545e+1
-1.566, -2.843e-4, 9.871e-2, 5.567e+1
-1.588, -2.852e-4, 9.832e-2, 5.589e+1
-1.610, -2.862e-4, 8.988e-2, 5.611e+1
-1.632, -2.876e-4, 9.070e-2, 5.633e+1
-1.654, -2.897e-4, 8.611e-2, 5.655e+1
-1.676, -2.928e-4, 8.311e-2, 5.677e+1
-1.698, -2.971e-4, 8.239e-2, 5.699e+1
-1.720, -3.027e-4, 8.382e-2, 5.721e+1
-1.742, -3.097e-4, 8.613e-2, 5.743e+1
-1.764, -3.181e-4, 9.702e-2, 5.765e+1
-1.786, -3.276e-4, 9.200e-2, 5.787e+1
-1.808, -3.376e-4, 9.736e-2, 5.809e+1
-1.830, -3.472e-4, 1.003e-1, 5.831e+1
-1.852, -3.563e-4, 1.161e-1, 5.853e+1
-1.874, -3.647e-4, 1.254e-1, 5.875e+1
-1.896, -3.725e-4, 1.393e-1, 5.897e+1
-1.918, -3.795e-4, 1.638e-1, 5.919e+1
-1.940, -3.865e-4, 1.876e-1, 5.941e+1
-1.962, -3.942e-4, 2.120e-1, 5.963e+1
-1.984, -4.026e-4, 2.432e-1, 5.985e+1
-1.994, -3.898e-4, 2.499e-1, 6.007e+1
-1.972, -3.432e-4, 2.215e-1, 6.029e+1
-1.950, -3.118e-4, 1.980e-1, 6.051e+1
-1.928, -2.886e-4, 1.646e-1, 6.073e+1
-1.906, -2.707e-4, 1.457e-1, 6.095e+1
-1.884, -2.566e-4, 1.385e-1, 6.117e+1
-1.862, -2.451e-4, 1.247e-1, 6.139e+1
-1.840, -2.356e-4, 1.105e-1, 6.161e+1
-1.818, -2.277e-4, 1.044e-1, 6.183e+1
-1.796, -2.209e-4, 9.432e-2, 6.205e+1
-1.774, -2.151e-4, 9.549e-2, 6.227e+1
-1.752, -2.100e-4, 8.526e-2, 6.249e+1
-1.730, -2.055e-4, 8.084e-2, 6.271e+1
-1.708, -2.014e-4, 7.587e-2, 6.293e+1
-1.686, -1.978e-4, 7.405e-2, 6.315e+1
-1.664, -1.944e-4, 6.713e-2, 6.337e+1
-1.642, -1.912e-4, 6.847e-2, 6.359e+1
-1.620, -1.882e-4, 6.854e-2, 6.381e+1
-1.598, -1.854e-4, 6.591e-2, 6.403e+1
-1.576, -1.827e-4, 6.290e-2, 6.425e+1
-1.554, -1.801e-4, 6.182e-2, 6.447e+1
-1.532, -1.776e-4, 6.500e-2, 6.469e+1
-1.510, -1.750e-4, 6.444e-2, 6.491e+1
-1.488, -1.724e-4, 5.907e-2, 6.513e+1
-1.466, -1.698e-4, 5.942e-2, 6.535e+1
-1.444, -1.671e-4, 6.203e-2, 6.557e+1
-1.422, -1.643e-4, 5.428e-2, 6.579e+1
-1.400, -1.614e-4, 5.861e-2, 6.601e+1
-1.378, -1.585e-4, 5.731e-2, 6.623e+1
-1.356, -1.554e-4, 5.497e-2, 6.645e+1
-1.334, -1.522e-4, 5.472e-2, 6.667e+1
-1.312, -1.488e-4, 5.778e-2, 6.689e+1
-1.290, -1.455e-4, 5.571e-2, 6.711e+1
-1.268, -1.419e-4, 5.455e-2, 6.733e+1
-1.246, -1.383e-4, 4.628e-2, 6.755e+1
-1.224, -1.345e-4, 4.922e-2, 6.777e+1
-1.202, -1.307e-4, 5.021e-2, 6.799e+1
-1.180, -1.266e-4, 4.829e-2, 6.821e+1
-1.158, -1.226e-4, 4.760e-2, 6.843e+1
-1.136, -1.186e-4, 4.719e-2, 6.865e+1
-1.114, -1.144e-4, 4.533e-2, 6.887e+1
-1.092, -1.100e-4, 4.241e-2, 6.909e+1
-1.070, -1.057e-4, 4.103e-2, 6.931e+1
-1.048, -1.013e-4, 4.535e-2, 6.953e+1
-1.026, -9.698e-5, 4.201e-2, 6.975e+1
-1.004, -9.258e-5, 4.347e-2, 6.997e+1
-0.982, -8.818e-5, 4.452e-2, 7.019e+1
-0.960, -8.379e-5, 4.510e-2, 7.041e+1
-0.938, -7.936e-5, 3.669e-2, 7.063e+1
-0.916, -7.492e-5, 3.857e-2, 7.085e+1
-0.894, -7.044e-5, 3.810e-2, 7.107e+1
-0.872, -6.607e-5, 3.643e-2, 7.129e+1
-0.850, -6.182e-5, 3.157e-2, 7.151e+1
-0.828, -5.764e-5, 2.717e-2, 7.173e+1
-0.806, -5.348e-5, 2.488e-2, 7.195e+1
-0.784, -4.939e-5, 2.432e-2, 7.217e+1
-0.762, -4.530e-5, 2.321e-2, 7.239e+1
-0.740, -4.133e-5, 2.210e-2, 7.261e+1
-0.718, -3.762e-5, 2.159e-2, 7.283e+1
-0.696, -3.407e-5, 2.368e-2, 7.305e+1
-0.674, -3.082e-5, 2.186e-2, 7.327e+1
-0.652, -2.773e-5, 2.175e-2, 7.349e+1
-0.630, -2.500e-5, 2.235e-2, 7.371e+1
-0.608, -2.248e-5, 2.114e-2, 7.393e+1
-0.586, -2.013e-5, 2.192e-2, 7.415e+1
-0.564, -1.799e-5, 2.189e-2, 7.437e+1
-0.542, -1.611e-5, 2.184e-2, 7.459e+1
-0.520, -1.435e-5, 2.179e-2, 7.481e+1
-0.498, -1.282e-5, 2.130e-2, 7.503e+1
-0.476, -1.150e-5, 2.237e-2, 7.525e+1
-0.454, -1.029e-5, 2.211e-2, 7.547e+1
-0.432, -9.268e-6, 2.324e-2, 7.569e+1
-0.410, -8.224e-6, 2.180e-2, 7.591e+1
-0.388, -7.352e-6, 2.242e-2, 7.613e+1
-0.366, -6.583e-6, 2.197e-2, 7.635e+1
-0.344, -5.798e-6, 2.198e-2, 7.657e+1
-0.322, -5.113e-6, 2.232e-2, 7.679e+1
-0.300, -4.501e-6, 2.210e-2, 7.701e+1
-0.278, -3.927e-6, 2.219e-2, 7.723e+1
-0.256, -3.420e-6, 2.181e-2, 7.745e+1
-0.234, -2.936e-6, 2.250e-2, 7.767e+1
-0.212, -2.466e-6, 2.212e-2, 7.789e+1
-0.190, -2.034e-6, 2.262e-2, 7.811e+1
-0.168, -1.679e-6, 2.552e-2, 7.833e+1
-0.146, -1.287e-6, 2.288e-2, 7.855e+1
-0.124, -9.724e-7, 2.290e-2, 7.877e+1
-0.102, -6.482e-7, 2.210e-2, 7.899e+1
-0.080, -3.418e-7, 2.270e-2, 7.921e+1
-0.058, -7.353e-8, 2.311e-2, 7.943e+1
-0.036, 2.058e-7, 2.235e-2, 7.965e+1
-0.014, 5.023e-7, 2.306e-2, 7.987e+1
-0.008, 9.566e-8, 2.267e-2, 8.009e+1
-0.030, -5.067e-7, 2.327e-2, 8.031e+1
-0.052, -9.865e-7, 2.244e-2, 8.053e+1
-0.074, -1.455e-6, 2.288e-2, 8.075e+1
-0.096, -1.901e-6, 2.231e-2, 8.097e+1
-0.118, -2.338e-6, 2.295e-2, 8.119e+1
-0.140, -2.843e-6, 2.313e-2, 8.141e+1
-0.162, -3.380e-6, 2.335e-2, 8.163e+1
-0.184, -3.961e-6, 2.246e-2, 8.185e+1
-0.206, -4.605e-6, 2.271e-2, 8.207e+1
-0.228, -5.277e-6, 2.340e-2, 8.229e+1
-0.250, -6.062e-6, 2.345e-2, 8.251e+1
-0.272, -6.963e-6, 2.299e-2, 8.273e+1
-0.294, -7.985e-6, 2.322e-2, 8.295e+1
-0.316, -9.140e-6, 2.235e-2, 8.317e+1
-0.338, -1.039e-5, 2.297e-2, 8.339e+1
-0.360, -1.184e-5, 2.394e-2, 8.361e+1
-0.382, -1.350e-5, 2.317e-2, 8.383e+1
-0.404, -1.538e-5, 2.242e-2, 8.405e+1
-0.426, -1.747e-5, 2.394e-2, 8.427e+1
-0.448, -1.984e-5, 2.296e-2, 8.449e+1
-0.470, -2.263e-5, 2.374e-2, 8.471e+1
-0.492, -2.580e-5, 2.295e-2, 8.493e+1
-0.514, -2.951e-5, 2.291e-2, 8.515e+1
-0.536, -3.390e-5, 2.340e-2, 8.537e+1
-0.558, -3.903e-5, 2.396e-2, 8.559e+1
-0.580, -4.504e-5, 2.364e-2, 8.581e+1
-0.602, -5.182e-5, 2.346e-2, 8.603e+1
-0.624, -5.951e-5, 2.319e-2, 8.625e+1
-0.646, -6.809e-5, 2.490e-2, 8.647e+1
-0.668, -7.769e-5, 2.435e-2, 8.669e+1
-0.690, -8.820e-5, 2.391e-2, 8.691e+1
-0.712, -9.969e-5, 2.433e-2, 8.713e+1
-0.734, -1.120e-4, 2.441e-2, 8.735e+1
-0.756, -1.247e-4, 2.614e-2, 8.757e+1
-0.778, -1.377e-4, 2.507e-2, 8.779e+1
-0.800, -1.500e-4, 2.811e-2, 8.801e+1
-0.822, -1.606e-4, 3.320e-2, 8.823e+1
-0.844, -1.692e-4, 4.071e-2, 8.845e+1
-0.866, -1.768e-4, 4.905e-2, 8.867e+1
-0.888, -1.844e-4, 5.269e-2, 8.889e+1
-0.910, -1.922e-4, 5.885e-2, 8.911e+1
-0.932, -2.000e-4, 6.659e-2, 8.933e+1
-0.954, -2.074e-4, 6.387e-2, 8.955e+1
-0.976, -2.144e-4, 7.322e-2, 8.977e+1
-0.998, -2.213e-4, 7.020e-2, 8.999e+1
-1.020, -2.282e-4, 7.115e-2, 9.021e+1
-1.042, -2.353e-4, 6.812e-2, 9.043e+1
-1.064, -2.425e-4, 6.842e-2, 9.065e+1
-1.086, -2.498e-4, 7.172e-2, 9.087e+1
-1.108, -2.569e-4, 7.575e-2, 9.109e+1
-1.130, -2.637e-4, 8.411e-2, 9.131e+1
-1.152, -2.702e-4, 8.030e-2, 9.153e+1
-1.174, -2.764e-4, 8.467e-2, 9.175e+1
-1.196, -2.820e-4, 8.847e-2, 9.197e+1
-1.218, -2.870e-4, 8.525e-2, 9.219e+1
-1.240, -2.914e-4, 9.061e-2, 9.241e+1
-1.262, -2.952e-4, 8.804e-2, 9.263e+1
-1.284, -2.984e-4, 9.715e-2, 9.285e+1
-1.306, -3.012e-4, 9.710e-2, 9.307e+1
-1.328, -3.036e-4, 9.797e-2, 9.329e+1
-1.350, -3.056e-4, 9.712e-2, 9.351e+1
-1.372, -3.070e-4, 9.421e-2, 9.373e+1
-1.394, -3.080e-4, 9.624e-2, 9.395e+1
-1.416, -3.086e-4, 9.112e-2, 9.417e+1
-1.438, -3.086e-4, 8.843e-2, 9.439e+1
-1.460, -3.083e-4, 8.900e-2, 9.461e+1
-1.482, -3.079e-4, 8.006e-2, 9.483e+1
-1.504, -3.075e-4, 8.600e-2, 9.505e+1
-1.526, -3.077e-4, 8.733e-2, 9.527e+1
-1.548, -3.086e-4, 8.162e-2, 9.549e+1
-1.570, -3.103e-4, 8.203e-2, 9.571e+1
-1.592, -3.120e-4, 8.539e-2, 9.593e+1
-1.614, -3.137e-4, 8.226e-2, 9.615e+1
-1.636, -3.152e-4, 7.972e-2, 9.637e+1
-1.658, -3.168e-4, 8.090e-2, 9.659e+1
-1.680, -3.189e-4, 8.151e-2, 9.681e+1
-1.702, -3.217e-4, 8.035e-2, 9.703e+1
-1.724, -3.255e-4, 8.394e-2, 9.725e+1
-1.746, -3.304e-4, 8.779e-2, 9.747e+1
-1.768, -3.365e-4, 8.937e-2, 9.769e+1
-1.790, -3.438e-4, 8.684e-2, 9.791e+1
-1.812, -3.519e-4, 1.005e-1, 9.813e+1
-1.834, -3.605e-4, 1.054e-1, 9.835e+1
-1.856, -3.692e-4, 1.134e-1, 9.857e+1
-1.878, -3.777e-4, 1.235e-1, 9.879e+1
-1.900, -3.861e-4, 1.353e-1, 9.901e+1
-1.922, -3.943e-4, 1.574e-1, 9.923e+1
-1.944, -4.022e-4, 1.735e-1, 9.945e+1
-1.966, -4.103e-4, 1.949e-1, 9.967e+1
-1.988, -4.190e-4, 2.147e-1, 9.989e+1
-1.990, -3.953e-4, 2.127e-1, 1.001e+2
-1.968, -3.524e-4, 1.789e-1, 1.003e+2
-1.946, -3.224e-4, 1.509e-1, 1.006e+2
-1.924, -2.998e-4, 1.409e-1, 1.008e+2
-1.902, -2.820e-4, 1.248e-1, 1.010e+2
-1.880, -2.675e-4, 1.092e-1, 1.012e+2
-1.858, -2.558e-4, 9.959e-2, 1.014e+2
-1.836, -2.460e-4, 9.282e-2, 1.017e+2
-1.814, -2.377e-4, 8.596e-2, 1.019e+2
-1.792, -2.306e-4, 8.157e-2, 1.021e+2
-1.770, -2.243e-4, 7.815e-2, 1.023e+2
-1.748, -2.188e-4, 7.314e-2, 1.025e+2
-1.726, -2.139e-4, 6.672e-2, 1.028e+2
-1.704, -2.095e-4, 6.407e-2, 1.030e+2
-1.682, -2.055e-4, 6.722e-2, 1.032e+2
-1.660, -2.017e-4, 5.571e-2, 1.034e+2
-1.638, -1.981e-4, 6.161e-2, 1.036e+2
-1.616, -1.948e-4, 5.582e-2, 1.039e+2
-1.594, -1.916e-4, 5.565e-2, 1.041e+2
-1.572, -1.884e-4, 5.777e-2, 1.043e+2
-1.550, -1.854e-4, 5.314e-2, 1.045e+2
-1.528, -1.824e-4, 5.297e-2, 1.047e+2
-1.506, -1.794e-4, 5.082e-2, 1.050e+2
-1.484, -1.763e-4, 4.963e-2, 1.052e+2
-1.462, -1.732e-4, 5.036e-2, 1.054e+2
-1.440, -1.700e-4, 4.961e-2, 1.056e+2
-1.418, -1.668e-4, 5.117e-2, 1.058e+2
-1.396, -1.635e-4, 5.224e-2, 1.061e+2
-1.374, -1.602e-4, 5.011e-2, 1.063e+2
-1.352, -1.566e-4, 4.680e-2, 1.065e+2
-1.330, -1.530e-4, 4.727e-2, 1.067e+2
-1.308, -1.493e-4, 4.562e-2, 1.069e+2
-1.286, -1.455e-4, 4.303e-2, 1.072e+2
-1.264, -1.416e-4, 4.415e-2, 1.074e+2
-1.242, -1.376e-4, 4.317e-2, 1.076e+2
-1.220, -1.335e-4, 4.558e-2, 1.078e+2
-1.198, -1.293e-4, 4.166e-2, 1.080e+2
-1.176, -1.250e-4, 4.106e-2, 1.083e+2
-1.154, -1.208e-4, 4.195e-2, 1.085e+2
-1.132, -1.163e-4, 4.112e-2, 1.087e+2
-1.110, -1.118e-4, 3.948e-2, 1.089e+2
-1.088, -1.073e-4, 4.170e-2, 1.091e+2
-1.066, -1.028e-4, 3.782e-2, 1.094e+2
-1.044, -9.816e-5, 3.828e-2, 1.096e+2
-1.022, -9.356e-5, 3.664e-2, 1.098e+2
-1.000, -8.897e-5, 4.017e-2, 1.100e+2
-0.978, -8.440e-5, 3.619e-2, 1.102e+2
-0.956, -7.984e-5, 3.767e-2, 1.105e+2
-0.934, -7.525e-5, 3.518e-2, 1.107e+2
-0.912, -7.068e-5, 3.437e-2, 1.109e+2
-0.890, -6.622e-5, 3.354e-2, 1.111e+2
-0.868, -6.180e-5, 3.133e-2, 1.113e+2
-0.846, -5.751e-5, 2.928e-2, 1.116e+2
-0.824, -5.330e-5, 2.804e-2, 1.118e+2
-0.802, -4.917e-5, 2.573e-2, 1.120e+2
-0.780, -4.517e-5, 2.492e-2, 1.122e+2
-0.758, -4.117e-5, 2.436e-2, 1.124e+2
-0.736, -3.748e-5, 2.427e-2, 1.127e+2
-0.714, -3.396e-5, 2.491e-2, 1.129e+2
-0.692, -3.069e-5, 2.505e-2, 1.131e+2
-0.670, -2.763e-5, 2.437e-2, 1.133e+2
-0.648, -2.482e-5, 2.486e-2, 1.135e+2
-0.626, -2.227e-5, 2.388e-2, 1.138e+2
-0.604, -1.989e-5, 2.451e-2, 1.140e+2
-0.582, -1.775e-5, 2.370e-2, 1.142e+2
-0.560, -1.583e-5, 2.441e-2, 1.144e+2
-0.538, -1.408e-5, 2.354e-2, 1.146e+2
-0.516, -1.252e-5, 2.395e-2, 1.149e+2
-0.494, -1.117e-5, 2.428e-2, 1.151e+2
-0.472, -9.970e-6, 2.370e-2, 1.153e+2
-0.450, -8.902e-6, 2.427e-2, 1.155e+2
-0.428, -7.915e-6, 2.373e-2, 1.157e+2
-0.406, -7.042e-6, 2.397e-2, 1.160e+2
-0.384, -6.254e-6, 2.378e-2, 1.162e+2
-0.362, -5.532e-6, 2.367e-2, 1.164e+2
-0.340, -4.893e-6, 2.409e-2, 1.166e+2
-0.318, -4.295e-6, 2.346e-2, 1.168e+2
-0.296, -3.749e-6, 2.299e-2, 1.171e+2
-0.274, -3.227e-6, 2.390e-2, 1.173e+2
-0.252, -2.769e-6, 2.402e-2, 1.175e+2
-0.230, -2.353e-6, 2.434e-2, 1.177e+2
-0.208, -1.951e-6, 2.321e-2, 1.179e+2
-0.186, -1.598e-6, 2.340e-2, 1.182e+2
-0.164, -1.242e-6, 2.469e-2, 1.184e+2
-0.142, -9.219e-7, 2.380e-2, 1.186e+2
-0.120, -6.088e-7, 2.403e-2, 1.188e+2
-0.098, -3.067e-7, 2.347e-2, 1.190e+2
-0.076, -4.523e-8, 2.350e-2, 1.193e+2
-0.054, 1.978e-7, 2.417e-2, 1.195e+2
-0.032, 4.734e-7, 2.293e-2, 1.197e+2
-0.010, 6.894e-7, 2.393e-2, 1.199e+2
-0.012, 1.633e-7, 2.391e-2, 1.201e+2
-0.034, -3.430e-7, 2.394e-2, 1.204e+2
-0.056, -7.983e-7, 2.377e-2, 1.206e+2
-0.078, -1.185e-6, 2.340e-2, 1.208e+2
-0.100, -1.571e-6, 2.447e-2, 1.210e+2
-0.122, -1.972e-6, 2.339e-2, 1.212e+2
-0.144, -2.429e-6, 2.331e-2, 1.215e+2
-0.166, -2.928e-6, 2.426e-2, 1.217e+2
-0.188, -3.475e-6, 2.456e-2, 1.219e+2
-0.210, -4.018e-6, 2.461e-2, 1.221e+2
-0.232, -4.629e-6, 2.331e-2, 1.223e+2
-0.254, -5.338e-6, 2.343e-2, 1.226e+2
-0.276, -6.108e-6, 2.357e-2, 1.228e+2
-0.298, -6.994e-6, 2.388e-2, 1.230e+2
-0.320, -7.965e-6, 2.330e-2, 1.232e+2
-0.342, -9.116e-6, 2.476e-2, 1.234e+2
-0.364, -1.031e-5, 2.342e-2, 1.237e+2
-0.386, -1.169e-5, 2.370e-2, 1.239e+2
-0.408, -1.323e-5, 2.320e-2, 1.241e+2
-0.430, -1.503e-5, 2.398e-2, 1.243e+2
-0.452, -1.703e-5, 2.410e-2, 1.245e+2
-0.474, -1.936e-5, 2.335e-2, 1.248e+2
-0.496, -2.206e-5, 2.691e-2, 1.250e+2
-0.518, -2.517e-5, 2.369e-2, 1.252e+2
-0.540, -2.887e-5, 2.374e-2, 1.254e+2
-0.562, -3.315e-5, 2.369e-2, 1.256e+2
-0.584, -3.814e-5, 2.279e-2, 1.259e+2
-0.606, -4.388e-5, 2.352e-2, 1.261e+2
-0.628, -5.038e-5, 2.366e-2, 1.263e+2
-0.650, -5.766e-5, 2.351e-2, 1.265e+2
-0.672, -6.578e-5, 2.272e-2, 1.267e+2
-0.694, -7.479e-5, 2.314e-2, 1.270e+2
-0.716, -8.463e-5, 2.405e-2, 1.272e+2
-0.738, -9.535e-5, 2.337e-2, 1.274e+2
-0.760, -1.067e-4, 2.453e-2, 1.276e+2
-0.782, -1.183e-4, 2.560e-2, 1.278e+2
-0.804, -1.293e-4, 2.829e-2, 1.281e+2
-0.826, -1.395e-4, 3.120e-2, 1.283e+2
-0.848, -1.483e-4, 3.520e-2, 1.285e+2
-0.870, -1.566e-4, 4.069e-2, 1.287e+2
-0.892, -1.649e-4, 4.456e-2, 1.289e+2
-0.914, -1.734e-4, 4.624e-2, 1.292e+2
-0.936, -1.817e-4, 5.169e-2, 1.294e+2
-0.958, -1.897e-4, 5.373e-2, 1.296e+2
-0.980, -1.974e-4, 5.350e-2, 1.298e+2
-1.002, -2.049e-4, 5.604e-2, 1.300e+2
-1.024, -2.126e-4, 5.401e-2, 1.303e+2
-1.046, -2.203e-4, 5.560e-2, 1.305e+2
-1.068, -2.280e-4, 5.890e-2, 1.307e+2
-1.090, -2.357e-4, 5.829e-2, 1.309e+2
-1.112, -2.432e-4, 5.328e-2, 1.311e+2
-1.134, -2.504e-4, 6.079e-2, 1.314e+2
-1.156, -2.572e-4, 6.084e-2, 1.316e+2
-1.178, -2.636e-4, 6.714e-2, 1.318e+2
-1.200, -2.694e-4, 6.331e-2, 1.320e+2
-1.222, -2.747e-4, 6.685e-2, 1.322e+2
-1.244, -2.794e-4, 6.780e-2, 1.325e+2
-1.266, -2.835e-4, 7.003e-2, 1.327e+2
-1.288, -2.871e-4, 7.302e-2, 1.329e+2
-1.310, -2.903e-4, 7.492e-2, 1.331e+2
-1.332, -2.931e-4, 7.227e-2, 1.333e+2
-1.354, -2.954e-4, 7.319e-2, 1.336e+2
-1.376, -2.973e-4, 7.542e-2, 1.338e+2
-1.398, -2.986e-4, 7.129e-2, 1.340e+2
-1.420, -2.995e-4, 7.243e-2, 1.342e+2
-1.442, -2.999e-4, 7.627e-2, 1.344e+2
-1.464, -3.000e-4, 6.799e-2, 1.347e+2
-1.486, -2.999e-4, 7.383e-2, 1.349e+2
-1.508, -3.000e-4, 6.821e-2, 1.351e+2
-1.530, -3.009e-4, 7.182e-2, 1.353e+2
-1.552, -3.029e-4, 6.715e-2, 1.355e+2
-1.574, -3.058e-4, 7.375e-2, 1.358e+2
-1.596, -3.091e-4, 7.321e-2, 1.360e+2
-1.618, -3.120e-4, 7.093e-2, 1.362e+2
-1.640, -3.145e-4, 7.141e-2, 1.364e+2
-1.662, -3.167e-4, 7.041e-2, 1.366e+2
-1.684, -3.191e-4, 7.679e-2, 1.369e+2
-1.706, -3.220e-4, 7.532e-2, 1.371e+2
-1.728, -3.256e-4, 7.789e-2, 1.373e+2
-1.750, -3.302e-4, 8.117e-2, 1.375e+2
-1.772, -3.358e-4, 8.433e-2, 1.377e+2
-1.794, -3.425e-4, 9.235e-2, 1.380e+2
-1.816, -3.501e-4, 9.578e-2, 1.382e+2
-1.838, -3.582e-4, 1.041e-1, 1.384e+2
-1.860, -3.664e-4, 1.082e-1, 1.386e+2
-1.882, -3.744e-4, 1.239e-1, 1.388e+2
-1.904, -3.823e-4, 1.367e-1, 1.391e+2
-1.926, -3.905e-4, 1.559e-1, 1.393e+2
-1.948, -3.991e-4, 1.751e-1, 1.395e+2
-1.970, -4.084e-4, 1.890e-1, 1.397e+2
-1.992, -4.186e-4, 2.033e-1, 1.399e+2
-1.986, -3.848e-4, 1.830e-1, 1.402e+2
-1.964, -3.447e-4, 1.595e-1, 1.404e+2
-1.942, -3.156e-4, 1.428e-1, 1.406e+2
-1.920, -2.934e-4, 1.220e-1, 1.408e+2
-1.898, -2.756e-4, 1.048e-1, 1.410e+2
-1.876, -2.613e-4, 9.934e-2, 1.413e+2
-1.854, -2.497e-4, 9.840e-2, 1.415e+2
-1.832, -2.400e-4, 7.998e-2, 1.417e+2
-1.810, -2.317e-4, 7.796e-2, 1.419e+2
-1.788, -2.247e-4, 7.268e-2, 1.421e+2
-1.766, -2.186e-4, 7.407e-2, 1.424e+2
-1.744, -2.133e-4, 6.500e-2, 1.426e+2
-1.722, -2.085e-4, 5.836e-2, 1.428e+2
-1.700, -2.042e-4, 5.250e-2, 1.430e+2
-1.678, -2.002e-4, 5.261e-2, 1.432e+2
-1.656, -1.966e-4, 5.298e-2, 1.435e+2
-1.634, -1.931e-4, 5.361e-2, 1.437e+2
-1.612, -1.899e-4, 5.117e-2, 1.439e+2
-1.590, -1.867e-4, 4.939e-2, 1.441e+2
-1.568, -1.836e-4, 4.933e-2, 1.443e+2
-1.546, -1.806e-4, 4.878e-2, 1.445e+2
-1.524, -1.775e-4, 5.039e-2, 1.448e+2
-1.502, -1.745e-4, 4.465e-2, 1.450e+2
-1.480, -1.714e-4, 4.777e-2, 1.452e+2
-1.458, -1.682e-4, 4.212e-2, 1.454e+2
-1.436, -1.650e-4, 4.528e-2, 1.456e+2
-1.414, -1.617e-4, 4.149e-2, 1.459e+2
-1.392, -1.583e-4, 4.225e-2, 1.461e+2
-1.370, -1.548e-4, 4.169e-2, 1.463e+2
-1.348, -1.512e-4, 3.711e-2, 1.465e+2
-1.326, -1.475e-4, 4.177e-2, 1.467e+2
-1.304, -1.438e-4, 3.986e-2, 1.470e+2
-1.282, -1.399e-4, 3.922e-2, 1.472e+2
-1.260, -1.359e-4, 3.889e-2, 1.474e+2
-1.238, -1.318e-4, 3.896e-2, 1.476e+2
-1.216, -1.276e-4, 3.728e-2, 1.478e+2
-1.194, -1.233e-4, 3.757e-2, 1.481e+2
-1.172, -1.191e-4, 3.542e-2, 1.483e+2
-1.150, -1.147e-4, 3.366e-2, 1.485e+2
-1.128, -1.103e-4, 3.518e-2, 1.487e+2
-1.106, -1.058e-4, 3.378e-2, 1.489e+2
-1.084, -1.012e-4, 3.493e-2, 1.492e+2
-1.062, -9.667e-5, 3.332e-2, 1.494e+2
-1.040, -9.209e-5, 3.368e-2, 1.496e+2
-1.018, -8.747e-5, 3.459e-2, 1.498e+2
-0.996, -8.296e-5, 3.111e-2, 1.500e+2
-0.974, -7.838e-5, 3.423e-2, 1.503e+2
-0.952, -7.381e-5, 3.284e-2, 1.505e+2
-0.930, -6.931e-5, 3.211e-2, 1.507e+2
-0.908, -6.489e-5, 3.163e-2, 1.509e+2
-0.886, -6.052e-5, 2.748e-2, 1.511e+2
-0.864, -5.624e-5, 2.833e-2, 1.514e+2
-0.842, -5.209e-5, 2.499e-2, 1.516e+2
-0.820, -4.810e-5, 2.523e-2, 1.518e+2
-0.798, -4.415e-5, 2.272e-2, 1.520e+2
-0.776, -4.034e-5, 2.269e-2, 1.522e+2
-0.754, -3.668e-5, 2.165e-2, 1.525e+2
-0.732, -3.322e-5, 2.178e-2, 1.527e+2
-0.710, -2.997e-5, 2.228e-2, 1.529e+2
-0.688, -2.697e-5, 2.136e-2, 1.531e+2
-0.666, -2.419e-5, 2.091e-2, 1.533e+2
-0.644, -2.166e-5, 2.264e-2, 1.536e+2
-0.622, -1.930e-5, 2.134e-2, 1.538e+2
-0.600, -1.716e-5, 2.211e-2, 1.540e+2
-0.578, -1.526e-5, 2.079e-2, 1.542e+2
-0.556, -1.356e-5, 2.184e-2, 1.544e+2
-0.534, -1.202e-5, 2.180e-2, 1.547e+2
-0.512, -1.066e-5, 2.069e-2, 1.549e+2
-0.490, -9.510e-6, 2.119e-2, 1.551e+2
-0.468, -8.443e-6, 2.084e-2, 1.553e+2
-0.446, -7.465e-6, 2.127e-2, 1.555e+2
-0.424, -6.660e-6, 2.092e-2, 1.558e+2
-0.402, -5.934e-6, 2.145e-2, 1.560e+2
-0.380, -5.293e-6, 2.249e-2, 1.562e+2
-0.358, -4.667e-6, 2.106e-2, 1.564e+2
-0.336, -4.119e-6, 2.202e-2, 1.566e+2
-0.314, -3.570e-6, 2.132e-2, 1.569e+2
-0.292, -3.094e-6, 2.177e-2, 1.571e+2
-0.270, -2.629e-6, 2.105e-2, 1.573e+2
-0.248, -2.229e-6, 1.986e-2, 1.575e+2
-0.226, -1.861e-6, 2.098e-2, 1.577e+2
-0.204, -1.513e-6, 2.124e-2, 1.580e+2
-0.182, -1.163e-6, 2.144e-2, 1.582e+2
-0.160, -8.973e-7, 2.030e-2, 1.584e+2
-0.138, -5.780e-7, 2.151e-2, 1.586e+2
-0.116, -3.067e-7, 2.073e-2, 1.588e+2
-0.094, -5.261e-8, 2.103e-2, 1.591e+2
-0.072, 1.732e-7, 2.056e-2, 1.593e+2
-0.050, 4.094e-7, 2.157e-2, 1.595e+2
-0.028, 6.204e-7, 2.024e-2, 1.597e+2
-0.006, 8.598e-7, 1.997e-2, 1.599e+2
-0.016, 2.058e-7, 2.085e-2, 1.602e+2
-0.038, -2.643e-7, 2.045e-2, 1.604e+2
-0.060, -6.740e-7, 2.081e-2, 1.606e+2
-0.082, -1.030e-6, 2.021e-2, 1.608e+2
-0.104, -1.409e-6, 2.116e-2, 1.610e+2
-0.126, -1.799e-6, 2.111e-2, 1.613e+2
-0.148, -2.191e-6, 1.983e-2, 1.615e+2
-0.170, -2.631e-6, 2.046e-2, 1.617e+2
-0.192, -3.100e-6, 2.083e-2, 1.619e+2
-0.214, -3.647e-6, 2.082e-2, 1.621e+2
-0.236, -4.197e-6, 2.004e-2, 1.624e+2
-0.258, -4.824e-6, 2.034e-2, 1.626e+2
-0.280, -5.530e-6, 2.589e-2, 1.628e+2
-0.302, -6.339e-6, 2.202e-2, 1.630e+2
-0.324, -7.213e-6, 1.942e-2, 1.632e+2
-0.346, -8.214e-6, 2.260e-2, 1.635e+2
-0.368, -9.350e-6, 2.045e-2, 1.637e+2
-0.390, -1.055e-5, 2.099e-2, 1.639e+2
-0.412, -1.196e-5, 2.021e-2, 1.641e+2
-0.434, -1.352e-5, 2.038e-2, 1.643e+2
-0.456, -1.532e-5, 2.003e-2, 1.646e+2
-0.478, -1.743e-5, 1.953e-2, 1.648e+2
-0.500, -1.985e-5, 2.034e-2, 1.650e+2
-0.522, -2.273e-5, 1.998e-2, 1.652e+2
-0.544, -2.596e-5, 1.977e-2, 1.654e+2
-0.566, -2.986e-5, 1.993e-2, 1.657e+2
-0.588, -3.428e-5, 2.097e-2, 1.659e+2
-0.610, -3.943e-5, 2.183e-2, 1.661e+2
-0.632, -4.528e-5, 1.947e-2, 1.663e+2
-0.654, -5.191e-5, 1.991e-2, 1.665e+2
-0.676, -5.932e-5, 2.039e-2, 1.668e+2
-0.698, -6.756e-5, 2.081e-2, 1.670e+2
-0.720, -7.671e-5, 2.000e-2, 1.672e+2
-0.742, -8.670e-5, 2.022e-2, 1.674e+2
-0.764, -9.742e-5, 2.160e-2, 1.676e+2
-0.786, -1.085e-4, 2.153e-2, 1.679e+2
-0.808, -1.193e-4, 2.326e-2, 1.681e+2
-0.830, -1.292e-4, 2.677e-2, 1.683e+2
-0.852, -1.383e-4, 2.997e-2, 1.685e+2
-0.874, -1.470e-4, 3.508e-2, 1.687e+2
-0.896, -1.559e-4, 3.395e-2, 1.690e+2
-0.918, -1.650e-4, 3.961e-2, 1.692e+2
-0.940, -1.740e-4, 4.349e-2, 1.694e+2
-0.962, -1.827e-4, 4.319e-2, 1.696e+2
-0.984, -1.911e-4, 4.337e-2, 1.698e+2
-1.006, -1.995e-4, 4.681e-2, 1.701e+2
-1.028, -2.080e-4, 4.920e-2, 1.703e+2
-1.050, -2.165e-4, 4.719e-2, 1.705e+2
-1.072, -2.249e-4, 4.854e-2, 1.707e+2
-1.094, -2.332e-4, 4.993e-2, 1.709e+2
-1.116, -2.413e-4, 5.028e-2, 1.712e+2
-1.138, -2.489e-4, 4.815e-2, 1.714e+2
-1.160, -2.562e-4, 5.473e-2, 1.716e+2
-1.182, -2.630e-4, 5.541e-2, 1.718e+2
-1.204, -2.692e-4, 5.795e-2, 1.720e+2
-1.226, -2.747e-4, 5.564e-2, 1.723e+2
-1.248, -2.797e-4, 6.076e-2, 1.725e+2
-1.270, -2.841e-4, 5.790e-2, 1.727e+2
-1.292, -2.879e-4, 5.721e-2, 1.729e+2
-1.314, -2.913e-4, 6.000e-2, 1.731e+2
-1.336, -2.943e-4, 5.975e-2, 1.734e+2
-1.358, -2.967e-4, 6.027e-2, 1.736e+2
-1.380, -2.986e-4, 6.408e-2, 1.738e+2
-1.402, -3.000e-4, 6.426e-2, 1.740e+2
-1.424, -3.009e-4, 5.868e-2, 1.742e+2
-1.446, -3.014e-4, 6.134e-2, 1.745e+2
-1.468, -3.014e-4, 5.820e-2, 1.747e+2
-1.490, -3.014e-4, 5.734e-2, 1.749e+2
-1.512, -3.017e-4, 5.878e-2, 1.751e+2
-1.534, -3.029e-4, 5.659e-2, 1.753e+2
-1.556, -3.055e-4, 6.182e-2, 1.756e+2
-1.578, -3.093e-4, 5.887e-2, 1.758e+2
-1.600, -3.135e-4, 6.266e-2, 1.760e+2
-1.622, -3.173e-4, 6.583e-2, 1.762e+2
-1.644, -3.204e-4, 6.297e-2, 1.764e+2
-1.666, -3.229e-4, 6.455e-2, 1.767e+2
-1.688, -3.254e-4, 7.014e-2, 1.769e+2
-1.710, -3.281e-4, 7.297e-2, 1.771e+2
-1.732, -3.315e-4, 7.396e-2, 1.773e+2
-1.754, -3.356e-4, 7.843e-2, 1.775e+2
-1.776, -3.407e-4, 8.149e-2, 1.778e+2
-1.798, -3.469e-4, 8.509e-2, 1.780e+2
-1.820, -3.538e-4, 9.490e-2, 1.782e+2
-1.842, -3.611e-4, 1.014e-1, 1.784e+2
-1.864, -3.685e-4, 1.088e-1, 1.786e+2
-1.886, -3.759e-4, 1.255e-1, 1.789e+2
-1.908, -3.838e-4, 1.392e-1, 1.791e+2
-1.930, -3.926e-4, 1.569e-1, 1.793e+2
-1.952, -4.019e-4, 1.677e-1, 1.795e+2
-1.974, -4.132e-4, 1.846e-1, 1.797e+2
-1.996, -4.252e-4, 1.990e-1, 1.800e+2
-1.982, -3.808e-4, 1.756e-1, 1.802e+2
-1.960, -3.421e-4, 1.457e-1, 1.804e+2
-1.938, -3.131e-4, 1.223e-1, 1.806e+2
-1.916, -2.940e-4, 1.177e-1, 1.808e+2
-1.894, -2.775e-4, 1.046e-1, 1.810e+2
-1.872, -2.632e-4, 9.118e-2, 1.813e+2
-1.850, -2.523e-4, 8.623e-2, 1.815e+2
-1.828, -2.427e-4, 7.822e-2, 1.817e+2
-1.806, -2.347e-4, 6.836e-2, 1.819e+2
-1.784, -2.279e-4, 6.714e-2, 1.821e+2
-1.762, -2.221e-4, 6.078e-2, 1.824e+2
-1.740, -2.172e-4, 5.561e-2, 1.826e+2
-1.718, -2.128e-4, 5.704e-2, 1.828e+2
-1.696, -2.090e-4, 5.327e-2, 1.830e+2
-1.674, -2.055e-4, 5.168e-2, 1.832e+2
-1.652, -2.022e-4, 5.220e-2, 1.835e+2
-1.630, -1.987e-4, 4.588e-2, 1.837e+2
-1.608, -1.954e-4, 4.376e-2, 1.839e+2
-1.586, -1.920e-4, 4.320e-2, 1.841e+2
-1.564, -1.888e-4, 4.269e-2, 1.843e+2
-1.542, -1.855e-4, 4.088e-2, 1.846e+2
-1.520, -1.823e-4, 3.883e-2, 1.848e+2
-1.498, -1.790e-4, 4.022e-2, 1.850e+2
-1.476, -1.757e-4, 3.764e-2, 1.852e+2
-1.454, -1.723e-4, 3.719e-2, 1.854e+2
-1.432, -1.688e-4, 4.014e-2, 1.857e+2
-1.410, -1.653e-4, 3.897e-2, 1.859e+2
-1.388, -1.617e-4, 3.648e-2, 1.861e+2
-1.366, -1.580e-4, 3.554e-2, 1.863e+2
-1.344, -1.542e-4, 3.261e-2, 1.865e+2
-1.322, -1.502e-4, 3.339e-2, 1.868e+2
-1.300, -1.462e-4, 3.451e-2, 1.870e+2
-1.278, -1.421e-4, 3.085e-2, 1.872e+2
-1.256, -1.379e-4, 3.315e-2, 1.874e+2
-1.234, -1.336e-4, 3.415e-2, 1.876e+2
-1.212, -1.292e-4, 3.207e-2, 1.879e+2
-1.190, -1.246e-4, 3.315e-2, 1.881e+2
-1.168, -1.203e-4, 3.194e-2, 1.883e+2
-1.146, -1.156e-4, 3.082e-2, 1.885e+2
-1.124, -1.109e-4, 3.121e-2, 1.887e+2
-1.102, -1.062e-4, 3.118e-2, 1.890e+2
-1.080, -1.015e-4, 3.397e-2, 1.892e+2
-1.058, -9.680e-5, 3.078e-2, 1.894e+2
-1.036, -9.199e-5, 2.950e-2, 1.896e+2
-1.014, -8.724e-5, 3.089e-2, 1.898e+2
-0.992, -8.256e-5, 3.022e-2, 1.901e+2
-0.970, -7.781e-5, 2.989e-2, 1.903e+2
-0.948, -7.311e-5, 3.202e-2, 1.905e+2
-0.926, -6.846e-5, 2.997e-2, 1.907e+2
-0.904, -6.391e-5, 2.795e-2, 1.909e+2
-0.882, -5.941e-5, 2.807e-2, 1.912e+2
-0.860, -5.510e-5, 2.678e-2, 1.914e+2
-0.838, -5.088e-5, 2.495e-2, 1.916e+2
-0.816, -4.680e-5, 2.268e-2, 1.918e+2
-0.794, -4.279e-5, 2.372e-2, 1.920e+2
-0.772, -3.896e-5, 2.333e-2, 1.923e+2
-0.750, -3.530e-5, 2.310e-2, 1.925e+2
-0.728, -3.190e-5, 2.182e-2, 1.927e+2
-0.706, -2.871e-5, 2.339e-2, 1.929e+2
-0.684, -2.571e-5, 2.289e-2, 1.931e+2
-0.662, -2.304e-5, 2.194e-2, 1.934e+2
-0.640, -2.054e-5, 2.248e-2, 1.936e+2
-0.618, -1.824e-5, 2.296e-2, 1.938e+2
-0.596, -1.621e-5, 2.300e-2, 1.940e+2
-0.574, -1.434e-5, 2.190e-2, 1.942e+2
-0.552, -1.271e-5, 2.332e-2, 1.945e+2
-0.530, -1.121e-5, 2.387e-2, 1.947e+2
-0.508, -9.937e-6, 2.301e-2, 1.949e+2
-0.486, -8.779e-6, 2.223e-2, 1.951e+2
-0.464, -7.752e-6, 2.352e-2, 1.953e+2
-0.442, -6.813e-6, 2.300e-2, 1.956e+2
-0.420, -6.020e-6, 2.272e-2, 1.958e+2
-0.398, -5.350e-6, 2.254e-2, 1.960e+2
-0.376, -4.698e-6, 2.328e-2, 1.962e+2
-0.354, -4.125e-6, 2.357e-2, 1.964e+2
-0.332, -3.609e-6, 2.184e-2, 1.967e+2
-0.310, -3.105e-6, 2.374e-2, 1.969e+2
-0.288, -2.632e-6, 2.354e-2, 1.971e+2
-0.266, -2.233e-6, 2.217e-2, 1.973e+2
-0.244, -1.869e-6, 2.325e-2, 1.975e+2
-0.222, -1.483e-6, 2.470e-2, 1.978e+2
-0.200, -1.145e-6, 2.254e-2, 1.980e+2
-0.178, -8.309e-7, 2.156e-2, 1.982e+2
-0.156, -5.534e-7, 2.287e-2, 1.984e+2
-0.134, -3.135e-7, 2.342e-2, 1.986e+2
-0.112, -6.369e-8, 2.260e-2, 1.989e+2
-0.090, 1.596e-7, 2.286e-2, 1.991e+2
-0.068, 3.984e-7, 2.271e-2, 1.993e+2
-0.046, 5.909e-7, 2.195e-2, 1.995e+2
-0.024, 8.309e-7, 2.166e-2, 1.997e+2
-0.002, 9.988e-7, 2.296e-2, 2.000e+2
-0.020, 2.482e-7, 2.303e-2, 2.002e+2
-0.042, -1.523e-7, 2.181e-2, 2.004e+2
-0.064, -5.350e-7, 2.257e-2, 2.006e+2
-0.086, -9.004e-7, 2.343e-2, 2.008e+2
-0.108, -1.202e-6, 2.211e-2, 2.011e+2
-0.130, -1.557e-6, 2.195e-2, 2.013e+2
-0.152, -1.952e-6, 2.199e-2, 2.015e+2
-0.174, -2.392e-6, 3.191e-2, 2.017e+2
-0.196, -2.821e-6, 2.210e-2, 2.019e+2
-0.218, -3.320e-6, 2.152e-2, 2.022e+2
-0.240, -3.886e-6, 2.277e-2, 2.024e+2
-0.262, -4.469e-6, 2.141e-2, 2.026e+2
-0.284, -5.132e-6, 2.105e-2, 2.028e+2
-0.306, -5.861e-6, 2.288e-2, 2.030e+2
-0.328, -6.699e-6, 2.183e-2, 2.033e+2
-0.350, -7.604e-6, 2.170e-2, 2.035e+2
-0.372, -8.679e-6, 2.053e-2, 2.037e+2
-0.394, -9.809e-6, 2.199e-2, 2.039e+2
-0.416, -1.105e-5, 2.130e-2, 2.041e+2
-0.438, -1.256e-5, 2.022e-2, 2.044e+2
-0.460, -1.427e-5, 2.159e-2, 2.046e+2
-0.482, -1.626e-5, 2.160e-2, 2.048e+2
-0.504, -1.848e-5, 1.968e-2, 2.050e+2
-0.526, -2.116e-5, 2.116e-2, 2.052e+2
-0.548, -2.427e-5, 2.140e-2, 2.055e+2
-0.570, -2.787e-5, 2.180e-2, 2.057e+2
-0.592, -3.205e-5, 1.939e-2, 2.059e+2
-0.614, -3.686e-5, 2.005e-2, 2.061e+2
-0.636, -4.233e-5, 2.160e-2, 2.063e+2
-0.658, -4.862e-5, 1.971e-2, 2.066e+2
-0.680, -5.563e-5, 2.030e-2, 2.068e+2
-0.702, -6.348e-5, 2.082e-2, 2.070e+2
-0.724, -7.223e-5, 2.079e-2, 2.072e+2
-0.746, -8.186e-5, 1.942e-2, 2.074e+2
-0.768, -9.216e-5, 2.070e-2, 2.077e+2
-0.790, -1.030e-4, 2.311e-2, 2.079e+2
-0.812, -1.136e-4, 2.422e-2, 2.081e+2
-0.834, -1.236e-4, 2.589e-2, 2.083e+2
-0.856, -1.330e-4, 2.912e-2, 2.085e+2
-0.878, -1.423e-4, 3.172e-2, 2.088e+2
-0.900, -1.519e-4, 3.184e-2, 2.090e+2
-0.922, -1.617e-4, 3.750e-2, 2.092e+2
-0.944, -1.714e-4, 3.931e-2, 2.094e+2
-0.966, -1.810e-4, 3.917e-2, 2.096e+2
-0.988, -1.903e-4, 3.908e-2, 2.099e+2
-1.010, -1.997e-4, 4.517e-2, 2.101e+2
-1.032, -2.092e-4, 4.304e-2, 2.103e+2
-1.054, -2.186e-4, 4.069e-2, 2.105e+2
-1.076, -2.279e-4, 4.264e-2, 2.107e+2
-1.098, -2.371e-4, 4.156e-2, 2.110e+2
-1.120, -2.458e-4, 4.448e-2, 2.112e+2
-1.142, -2.544e-4, 5.040e-2, 2.114e+2
-1.164, -2.623e-4, 5.015e-2, 2.116e+2
-1.186, -2.697e-4, 4.867e-2, 2.118e+2
-1.208, -2.765e-4, 4.847e-2, 2.121e+2
-1.230, -2.827e-4, 5.123e-2, 2.123e+2
-1.252, -2.881e-4, 5.240e-2, 2.125e+2
-1.274, -2.928e-4, 5.099e-2, 2.127e+2
-1.296, -2.970e-4, 5.391e-2, 2.129e+2
-1.318, -3.006e-4, 5.494e-2, 2.132e+2
-1.340, -3.038e-4, 5.314e-2, 2.134e+2
-1.362, -3.065e-4, 5.236e-2, 2.136e+2
-1.384, -3.085e-4, 5.194e-2, 2.138e+2
-1.406, -3.100e-4, 5.632e-2, 2.140e+2
-1.428, -3.110e-4, 5.395e-2, 2.143e+2
-1.450, -3.114e-4, 5.366e-2, 2.145e+2
-1.472, -3.115e-4, 5.548e-2, 2.147e+2
-1.494, -3.115e-4, 5.771e-2, 2.149e+2
-1.516, -3.122e-4, 5.234e-2, 2.151e+2
-1.538, -3.142e-4, 5.814e-2, 2.154e+2
-1.560, -3.180e-4, 5.633e-2, 2.156e+2
-1.582, -3.233e-4, 6.025e-2, 2.158e+2
-1.604, -3.290e-4, 5.880e-2, 2.160e+2
-1.626, -3.339e-4, 6.411e-2, 2.162e+2
-1.648, -3.376e-4, 6.242e-2, 2.165e+2
-1.670, -3.401e-4, 6.235e-2, 2.167e+2
-1.692, -3.423e-4, 6.414e-2, 2.169e+2
-1.714, -3.444e-4, 7.141e-2, 2.171e+2
-1.736, -3.470e-4, 7.504e-2, 2.173e+2
-1.758, -3.504e-4, 8.105e-2, 2.175e+2
-1.780, -3.547e-4, 8.727e-2, 2.178e+2
-1.802, -3.601e-4, 9.112e-2, 2.180e+2
-1.824, -3.662e-4, 9.840e-2, 2.182e+2
-1.846, -3.729e-4, 1.093e-1, 2.184e+2
-1.868, -3.801e-4, 1.213e-1, 2.186e+2
-1.890, -3.882e-4, 1.245e-1, 2.189e+2
-1.912, -3.975e-4, 1.456e-1, 2.191e+2
-1.934, -4.080e-4, 1.595e-1, 2.193e+2
-1.956, -4.200e-4, 1.714e-1, 2.195e+2
-1.978, -4.333e-4, 1.903e-1, 2.197e+2
-2.000, -4.463e-4, 2.085e-1, 2.200e+2
-1.978, -3.910e-4, 1.685e-1, 2.202e+2
-1.956, -3.526e-4, 1.387e-1, 2.204e+2
-1.934, -3.234e-4, 1.213e-1, 2.206e+2
-1.912, -3.003e-4, 1.110e-1, 2.208e+2
-1.890, -2.816e-4, 9.979e-2, 2.211e+2
-1.868, -2.662e-4, 8.600e-2, 2.213e+2
-1.846, -2.537e-4, 7.999e-2, 2.215e+2
-1.824, -2.432e-4, 7.368e-2, 2.217e+2
-1.802, -2.343e-4, 6.614e-2, 2.219e+2
-1.780, -2.268e-4, 5.969e-2, 2.222e+2
-1.758, -2.204e-4, 5.762e-2, 2.224e+2
-1.736, -2.148e-4, 5.575e-2, 2.226e+2
-1.714, -2.098e-4, 5.546e-2, 2.228e+2
-1.692, -2.052e-4, 5.024e-2, 2.230e+2
-1.670, -2.010e-4, 4.910e-2, 2.233e+2
-1.648, -1.971e-4, 4.303e-2, 2.235e+2
-1.626, -1.935e-4, 4.364e-2, 2.237e+2
-1.604, -1.900e-4, 4.595e-2, 2.239e+2
-1.582, -1.866e-4, 4.296e-2, 2.241e+2
-1.560, -1.832e-4, 3.999e-2, 2.244e+2
-1.538, -1.800e-4, 3.893e-2, 2.246e+2
-1.516, -1.767e-4, 4.005e-2, 2.248e+2
-1.494, -1.733e-4, 3.676e-2, 2.250e+2
-1.472, -1.698e-4, 3.848e-2, 2.252e+2
-1.450, -1.664e-4, 3.592e-2, 2.255e+2
-1.428, -1.628e-4, 3.547e-2, 2.257e+2
-1.406, -1.592e-4, 3.575e-2, 2.259e+2
-1.384, -1.554e-4, 3.506e-2, 2.261e+2
-1.362, -1.517e-4, 3.295e-2, 2.263e+2
-1.340, -1.477e-4, 3.258e-2, 2.266e+2
-1.318, -1.437e-4, 3.204e-2, 2.268e+2
-1.296, -1.397e-4, 3.496e-2, 2.270e+2
-1.274, -1.355e-4, 3.079e-2, 2.272e+2
-1.252, -1.312e-4, 3.170e-2, 2.274e+2
-1.230, -1.268e-4, 3.470e-2, 2.277e+2
-1.208, -1.224e-4, 3.085e-2, 2.279e+2
-1.186, -1.180e-4, 2.747e-2, 2.281e+2
-1.164, -1.134e-4, 3.072e-2, 2.283e+2
-1.142, -1.088e-4, 3.041e-2, 2.285e+2
-1.120, -1.041e-4, 2.919e-2, 2.288e+2
-1.098, -9.949e-5, 2.755e-2, 2.290e+2
-1.076, -9.478e-5, 3.075e-2, 2.292e+2
-1.054, -9.011e-5, 2.917e-2, 2.294e+2
-1.032, -8.538e-5, 2.616e-2, 2.296e+2
-1.010, -8.078e-5, 2.783e-2, 2.299e+2
-0.988, -7.611e-5, 2.879e-2, 2.301e+2
-0.966, -7.147e-5, 2.755e-2, 2.303e+2
-0.944, -6.690e-5, 2.692e-2, 2.305e+2
-0.922, -6.244e-5, 2.706e-2, 2.307e+2
-0.900, -5.806e-5, 2.637e-2, 2.310e+2
-0.878, -5.377e-5, 2.379e-2, 2.312e+2
-0.856, -4.961e-5, 2.588e-2, 2.314e+2
-0.834, -4.560e-5, 2.299e-2, 2.316e+2
-0.812, -4.168e-5, 2.072e-2, 2.318e+2
-0.790, -3.803e-5, 2.242e-2, 2.321e+2
-0.768, -3.448e-5, 2.282e-2, 2.323e+2
-0.746, -3.113e-5, 1.943e-2, 2.325e+2
-0.724, -2.799e-5, 2.123e-2, 2.327e+2
-0.702, -2.508e-5, 2.538e-2, 2.329e+2
-0.680, -2.244e-5, 2.103e-2, 2.332e+2
-0.658, -1.997e-5, 1.963e-2, 2.334e+2
-0.636, -1.773e-5, 2.062e-2, 2.336e+2
-0.614, -1.569e-5, 2.109e-2, 2.338e+2
-0.592, -1.385e-5, 2.033e-2, 2.340e+2
-0.570, -1.220e-5, 2.094e-2, 2.343e+2
-0.548, -1.074e-5, 2.128e-2, 2.345e+2
-0.526, -9.484e-6, 2.034e-2, 2.347e+2
-0.504, -8.311e-6, 1.953e-2, 2.349e+2
-0.482, -7.336e-6, 2.098e-2, 2.351e+2
-0.460, -6.445e-6, 2.161e-2, 2.354e+2
-0.438, -5.691e-6, 1.939e-2, 2.356e+2
-0.416, -5.008e-6, 1.992e-2, 2.358e+2
-0.394, -4.396e-6, 2.115e-2, 2.360e+2
-0.372, -3.839e-6, 1.979e-2, 2.362e+2
-0.350, -3.335e-6, 2.006e-2, 2.365e+2
-0.328, -2.851e-6, 2.041e-2, 2.367e+2
-0.306, -2.438e-6, 2.040e-2, 2.369e+2
-0.284, -2.050e-6, 1.964e-2, 2.371e+2
-0.262, -1.678e-6, 2.076e-2, 2.373e+2
-0.240, -1.395e-6, 2.129e-2, 2.376e+2
-0.218, -1.059e-6, 1.940e-2, 2.378e+2
-0.196, -7.651e-7, 2.013e-2, 2.380e+2
-0.174, -5.054e-7, 2.212e-2, 2.382e+2
-0.152, -2.396e-7, 1.996e-2, 2.384e+2
-0.130, -1.878e-8, 1.961e-2, 2.387e+2
-0.108, 2.101e-7, 2.063e-2, 2.389e+2
-0.086, 4.039e-7, 2.065e-2, 2.391e+2
-0.064, 5.835e-7, 1.912e-2, 2.393e+2
-0.042, 7.755e-7, 2.128e-2, 2.395e+2
-0.020, 9.391e-7, 2.156e-2, 2.398e+2
-0.002, 8.235e-7, 1.959e-2, 2.400e+2
-0.024, 3.018e-7, 1.943e-2, 2.402e+2
-0.046, -6.861e-8, 2.188e-2, 2.404e+2
-0.068, -3.990e-7, 2.178e-2, 2.406e+2
-0.090, -7.091e-7, 2.010e-2, 2.409e+2
-0.112, -1.059e-6, 2.007e-2, 2.411e+2
-0.134, -1.390e-6, 2.018e-2, 2.413e+2
-0.156, -1.727e-6, 1.931e-2, 2.415e+2
-0.178, -2.082e-6, 1.992e-2, 2.417e+2
-0.200, -2.473e-6, 2.163e-2, 2.420e+2
-0.222, -2.901e-6, 2.003e-2, 2.422e+2
-0.244, -3.399e-6, 1.947e-2, 2.424e+2
-0.266, -3.969e-6, 2.049e-2, 2.426e+2
-0.288, -4.545e-6, 2.131e-2, 2.428e+2
-0.310, -5.197e-6, 1.964e-2, 2.431e+2
-0.332, -5.894e-6, 2.049e-2, 2.433e+2
-0.354, -6.729e-6, 2.187e-2, 2.435e+2
-0.376, -7.659e-6, 2.279e-2, 2.437e+2
-0.398, -8.713e-6, 2.011e-2, 2.439e+2
-0.420, -9.856e-6, 2.445e-2, 2.442e+2
-0.442, -1.113e-5, 2.046e-2, 2.444e+2
-0.464, -1.266e-5, 1.928e-2, 2.446e+2
-0.486, -1.440e-5, 2.122e-2, 2.448e+2
-0.508, -1.646e-5, 2.115e-2, 2.450e+2
-0.530, -1.882e-5, 1.985e-2, 2.453e+2
-0.552, -2.159e-5, 2.002e-2, 2.455e+2
-0.574, -2.476e-5, 2.140e-2, 2.457e+2
-0.596, -2.852e-5, 2.116e-2, 2.459e+2
-0.618, -3.281e-5, 2.044e-2, 2.461e+2
-0.640, -3.778e-5, 2.148e-2, 2.464e+2
-0.662, -4.337e-5, 2.087e-2, 2.466e+2
-0.684, -4.979e-5, 2.057e-2, 2.468e+2
-0.706, -5.695e-5, 2.134e-2, 2.470e+2
-0.728, -6.491e-5, 2.161e-2, 2.472e+2
-0.750, -7.372e-5, 2.127e-2, 2.475e+2
-0.772, -8.330e-5, 2.090e-2, 2.477e+2
-0.794, -9.324e-5, 2.377e-2, 2.479e+2
-0.816, -1.032e-4, 2.530e-2, 2.481e+2
-0.838, -1.128e-4, 2.576e-2, 2.483e+2
-0.860, -1.221e-4, 2.986e-2, 2.486e+2
-0.882, -1.313e-4, 3.131e-2, 2.488e+2
-0.904, -1.410e-4, 3.478e-2, 2.490e+2
-0.926, -1.509e-4, 3.664e-2, 2.492e+2
-0.948, -1.608e-4, 3.828e-2, 2.494e+2
-0.970, -1.706e-4, 3.795e-2, 2.497e+2
-0.992, -1.804e-4, 3.938e-2, 2.499e+2
-1.014, -1.902e-4, 4.213e-2, 2.501e+2
-1.036, -2.000e-4, 4.275e-2, 2.503e+2
-1.058, -2.100e-4, 3.870e-2, 2.505e+2
-1.080, -2.198e-4, 4.225e-2, 2.508e+2
-1.102, -2.293e-4, 4.216e-2, 2.510e+2
-1.124, -2.386e-4, 4.212e-2, 2.512e+2
-1.146, -2.474e-4, 4.427e-2, 2.514e+2
-1.168, -2.558e-4, 4.614e-2, 2.516e+2
-1.190, -2.636e-4, 4.768e-2, 2.519e+2
-1.212, -2.707e-4, 4.441e-2, 2.521e+2
-1.234, -2.772e-4, 4.908e-2, 2.523e+2
-1.256, -2.830e-4, 4.781e-2, 2.525e+2
-1.278, -2.880e-4, 4.883e-2, 2.527e+2
-1.300, -2.925e-4, 4.902e-2, 2.530e+2
-1.322, -2.964e-4, 5.176e-2, 2.532e+2
-1.344, -2.997e-4, 5.189e-2, 2.534e+2
-1.366, -3.024e-4, 5.145e-2, 2.536e+2
-1.388, -3.045e-4, 5.450e-2, 2.538e+2
-1.410, -3.061e-4, 5.551e-2, 2.540e+2
-1.432, -3.071e-4, 5.440e-2, 2.543e+2
-1.454, -3.078e-4, 5.418e-2, 2.545e+2
-1.476, -3.080e-4, 5.637e-2, 2.547e+2
-1.498, -3.082e-4, 5.456e-2, 2.549e+2
-1.520, -3.091e-4, 5.706e-2, 2.551e+2
-1.542, -3.113e-4, 5.542e-2, 2.554e+2
-1.564, -3.155e-4, 5.301e-2, 2.556e+2
-1.586, -3.211e-4, 5.661e-2, 2.558e+2
-1.608, -3.272e-4, 6.151e-2, 2.560e+2
-1.630, -3.323e-4, 6.213e-2, 2.562e+2
-1.652, -3.360e-4, 6.572e-2, 2.565e+2
-1.674, -3.385e-4, 6.477e-2, 2.567e+2
-1.696, -3.403e-4, 6.977e-2, 2.569e+2
-1.718, -3.421e-4, 7.166e-2, 2.571e+2
-1.740, -3.442e-4, 8.225e-2, 2.573e+2
-1.762, -3.471e-4, 8.262e-2, 2.576e+2
-1.784, -3.509e-4, 8.812e-2, 2.578e+2
-1.806, -3.556e-4, 9.224e-2, 2.580e+2
-1.828, -3.612e-4, 1.068e-1, 2.582e+2
-1.850, -3.675e-4, 1.092e-1, 2.585e+2
-1.872, -3.746e-4, 1.206e-1, 2.587e+2
-1.894, -3.828e-4, 1.289e-1, 2.589e+2
-1.916, -3.925e-4, 1.496e-1, 2.591e+2
-1.938, -4.037e-4, 1.567e-1, 2.593e+2
-1.960, -4.164e-4, 1.793e-1, 2.596e+2
-1.982, -4.302e-4, 2.015e-1, 2.598e+2
-1.996, -4.291e-4, 1.995e-1, 2.600e+2
-1.974, -3.790e-4, 1.564e-1, 2.602e+2
-1.952, -3.429e-4, 1.411e-1, 2.604e+2
-1.930, -3.152e-4, 1.160e-1, 2.607e+2
-1.908, -2.930e-4, 1.024e-1, 2.609e+2
-1.886, -2.749e-4, 9.600e-2, 2.611e+2
-1.864, -2.600e-4, 8.709e-2, 2.613e+2
-1.842, -2.477e-4, 7.609e-2, 2.615e+2
-1.820, -2.376e-4, 7.217e-2, 2.618e+2
-1.798, -2.289e-4, 6.691e-2, 2.620e+2
-1.776, -2.218e-4, 5.971e-2, 2.622e+2
-1.754, -2.164e-4, 5.621e-2, 2.624e+2
-1.732, -2.119e-4, 5.127e-2, 2.626e+2
-1.710, -2.078e-4, 5.045e-2, 2.629e+2
-1.688, -2.035e-4, 4.637e-2, 2.631e+2
-1.666, -1.993e-4, 4.348e-2, 2.633e+2
-1.644, -1.955e-4, 3.973e-2, 2.635e+2
-1.622, -1.917e-4, 3.802e-2, 2.637e+2
-1.600, -1.882e-4, 3.962e-2, 2.640e+2
-1.578, -1.847e-4, 3.973e-2, 2.642e+2
-1.556, -1.813e-4, 3.652e-2, 2.644e+2
-1.534, -1.779e-4, 3.308e-2, 2.646e+2
-1.512, -1.744e-4, 3.671e-2, 2.648e+2
-1.490, -1.709e-4, 3.727e-2, 2.651e+2
-1.468, -1.674e-4, 3.112e-2, 2.653e+2
-1.446, -1.637e-4, 3.416e-2, 2.655e+2
-1.424, -1.600e-4, 3.275e-2, 2.657e+2
-1.402, -1.563e-4, 3.163e-2, 2.659e+2
-1.380, -1.524e-4, 3.150e-2, 2.662e+2
-1.358, -1.484e-4, 2.975e-2, 2.664e+2
-1.336, -1.444e-4, 3.016e-2, 2.666e+2
-1.314, -1.403e-4, 3.044e-2, 2.668e+2
-1.292, -1.360e-4, 3.068e-2, 2.670e+2
-1.270, -1.317e-4, 3.045e-2, 2.673e+2
-1.248, -1.273e-4, 2.562e-2, 2.675e+2
-1.226, -1.228e-4, 2.821e-2, 2.677e+2
-1.204, -1.184e-4, 2.726e-2, 2.679e+2
-1.182, -1.139e-4, 2.568e-2, 2.681e+2
-1.160, -1.092e-4, 2.629e-2, 2.684e+2
-1.138, -1.045e-4, 2.763e-2, 2.686e+2
-1.116, -9.986e-5, 2.618e-2, 2.688e+2
-1.094, -9.514e-5, 2.605e-2, 2.690e+2
-1.072, -9.039e-5, 2.640e-2, 2.692e+2
-1.050, -8.564e-5, 2.742e-2, 2.695e+2
-1.028, -8.099e-5, 2.314e-2, 2.697e+2
-1.006, -7.634e-5, 2.681e-2, 2.699e+2
-0.984, -7.172e-5, 2.617e-2, 2.701e+2
-0.962, -6.712e-5, 2.589e-2, 2.703e+2
-0.940, -6.267e-5, 2.422e-2, 2.706e+2
-0.918, -5.828e-5, 2.535e-2, 2.708e+2
-0.896, -5.400e-5, 2.460e-2, 2.710e+2
-0.874, -4.982e-5, 2.100e-2, 2.712e+2
-0.852, -4.580e-5, 2.223e-2, 2.714e+2
-0.830, -4.191e-5, 2.215e-2, 2.717e+2
-0.808, -3.824e-5, 1.901e-2, 2.719e+2
-0.786, -3.466e-5, 1.920e-2, 2.721e+2
-0.764, -3.136e-5, 2.090e-2, 2.723e+2
-0.742, -2.820e-5, 1.866e-2, 2.725e+2
-0.720, -2.529e-5, 1.917e-2, 2.728e+2
-0.698, -2.259e-5, 1.990e-2, 2.730e+2
-0.676, -2.013e-5, 1.937e-2, 2.732e+2
-0.654, -1.785e-5, 1.875e-2, 2.734e+2
-0.632, -1.578e-5, 2.018e-2, 2.736e+2
-0.610, -1.391e-5, 2.102e-2, 2.739e+2
-0.588, -1.221e-5, 1.927e-2, 2.741e+2
-0.566, -1.072e-5, 2.001e-2, 2.743e+2
-0.544, -9.437e-6, 2.153e-2, 2.745e+2
-0.522, -8.239e-6, 1.975e-2, 2.747e+2
-0.500, -7.223e-6, 1.960e-2, 2.750e+2
-0.478, -6.334e-6, 2.094e-2, 2.752e+2
-0.456, -5.568e-6, 1.930e-2, 2.754e+2
-0.434, -4.851e-6, 1.928e-2, 2.756e+2
-0.412, -4.261e-6, 2.145e-2, 2.758e+2
-0.390, -3.717e-6, 2.154e-2, 2.761e+2
-0.368, -3.215e-6, 1.977e-2, 2.763e+2
-0.346, -2.751e-6, 2.077e-2, 2.765e+2
-0.324, -2.345e-6, 2.132e-2, 2.767e+2
-0.302, -1.934e-6, 1.951e-2, 2.769e+2
-0.280, -1.601e-6, 2.221e-2, 2.772e+2
-0.258, -1.310e-6, 2.093e-2, 2.774e+2
-0.236, -9.693e-7, 2.044e-2, 2.776e+2
-0.214, -6.519e-7, 2.062e-2, 2.778e+2
-0.192, -4.070e-7, 2.187e-2, 2.781e+2
-0.170, -1.695e-7, 2.135e-2, 2.783e+2
-0.148, 4.152e-8, 2.032e-2, 2.785e+2
-0.126, 2.544e-7, 2.146e-2, 2.787e+2
-0.104, 4.353e-7, 2.167e-2, 2.789e+2
-0.082, 5.958e-7, 2.068e-2, 2.792e+2
-0.060, 7.816e-7, 2.161e-2, 2.794e+2
-0.038, 9.650e-7, 2.212e-2, 2.796e+2
-0.016, 1.121e-6, 2.149e-2, 2.798e+2
-0.006, 8.505e-7, 2.094e-2, 2.800e+2
-0.028, 4.328e-7, 2.247e-2, 2.803e+2
-0.050, 6.059e-8, 2.342e-2, 2.805e+2
-0.072, -2.396e-7, 2.034e-2, 2.807e+2
-0.094, -5.350e-7, 2.260e-2, 2.809e+2
-0.116, -8.426e-7, 2.270e-2, 2.811e+2
-0.138, -1.197e-6, 2.329e-2, 2.814e+2
-0.160, -1.528e-6, 2.223e-2, 2.816e+2
-0.182, -1.851e-6, 2.260e-2, 2.818e+2
-0.204, -2.216e-6, 2.151e-2, 2.820e+2
-0.226, -2.617e-6, 2.155e-2, 2.822e+2
-0.248, -3.030e-6, 2.325e-2, 2.825e+2
-0.270, -3.548e-6, 2.251e-2, 2.827e+2
-0.275, -3.684e-6, 1.883e-2, 2.827e+2