File: data/FL/FL/2023.4.27/9号b-cds（2）.txt
Apr. 27, 2023   12:37:07
Cyclic Voltammetry
File: 9Data Source:  Experiment
Instrument Model:  CHI660E
Ref. Electrode: Ag/AgCl
Header:
Note:

Init E (V) = 0
High E (V) = 0
Low E (V) = -2
Init P/N = N
Scan Rate (V/s) = 0.1
Segment = 40
Sample Interval (V) = 0.001
Quiet Time (sec) = 5
Sensitivity (A/V) = 0.001

Segment 1:

Segment 2:

Segment 3:

Segment 4:

Segment 5:

Segment 6:

Segment 7:

Segment 8:

Segment 9:

Segment 10:

Segment 11:

Segment 12:

Segment 13:

Segment 14:

Segment 15:

Segment 16:

Segment 17:

Segment 18:

Segment 19:

Segment 20:

Segment 21:

Segment 22:

Segment 23:

Segment 24:

Segment 25:

Segment 26:

Segment 27:

Segment 28:

Segment 29:

Segment 30:

Segment 31:

Segment 32:

Segment 33:

Segment 34:

Segment 35:

Segment 36:

Segment 37:

Segment 38:

Segment 39:

Segment 40:

Potential/V, Current/A, Voltage/V, Time/s

0.000, -7.380e-7, 2.893e-2, 1.000e-2
-0.061, -1.632e-6, 1.933e-2, 6.200e-1
-0.122, -2.750e-6, 1.910e-2, 1.230e+0
-0.183, -4.585e-6, 2.028e-2, 1.840e+0
-0.244, -6.863e-6, 1.960e-2, 2.450e+0
-0.305, -1.006e-5, 2.164e-2, 3.060e+0
-0.366, -1.416e-5, 1.711e-2, 3.670e+0
-0.427, -1.991e-5, 2.101e-2, 4.280e+0
-0.488, -2.819e-5, 1.967e-2, 4.890e+0
-0.549, -4.071e-5, 2.127e-2, 5.500e+0
-0.610, -5.906e-5, 1.788e-2, 6.110e+0
-0.671, -8.467e-5, 2.104e-2, 6.720e+0
-0.732, -1.190e-4, 1.907e-2, 7.330e+0
-0.793, -1.606e-4, 2.489e-2, 7.940e+0
-0.854, -1.991e-4, 2.631e-2, 8.550e+0
-0.915, -2.312e-4, 4.163e-2, 9.160e+0
-0.976, -2.654e-4, 4.476e-2, 9.770e+0
-1.037, -2.991e-4, 4.732e-2, 1.038e+1
-1.098, -3.310e-4, 4.352e-2, 1.099e+1
-1.159, -3.588e-4, 5.028e-2, 1.160e+1
-1.220, -3.802e-4, 5.003e-2, 1.221e+1
-1.281, -3.932e-4, 4.597e-2, 1.282e+1
-1.342, -3.990e-4, 4.831e-2, 1.343e+1
-1.403, -3.983e-4, 5.331e-2, 1.404e+1
-1.464, -3.921e-4, 5.100e-2, 1.465e+1
-1.525, -3.831e-4, 5.105e-2, 1.526e+1
-1.586, -3.829e-4, 5.791e-2, 1.587e+1
-1.647, -3.943e-4, 6.224e-2, 1.648e+1
-1.708, -3.994e-4, 7.157e-2, 1.709e+1
-1.769, -4.020e-4, 8.508e-2, 1.770e+1
-1.830, -4.110e-4, 1.054e-1, 1.831e+1
-1.891, -4.239e-4, 1.374e-1, 1.892e+1
-1.952, -4.441e-4, 1.682e-1, 1.953e+1
-1.987, -4.306e-4, 1.676e-1, 2.014e+1
-1.926, -3.349e-4, 1.110e-1, 2.075e+1
-1.865, -2.849e-4, 8.019e-2, 2.136e+1
-1.804, -2.548e-4, 6.268e-2, 2.197e+1
-1.743, -2.348e-4, 5.322e-2, 2.258e+1
-1.682, -2.200e-4, 4.451e-2, 2.319e+1
-1.621, -2.076e-4, 3.826e-2, 2.380e+1
-1.560, -1.995e-4, 3.646e-2, 2.441e+1
-1.499, -1.882e-4, 3.014e-2, 2.502e+1
-1.438, -1.763e-4, 3.390e-2, 2.563e+1
-1.377, -1.640e-4, 2.774e-2, 2.624e+1
-1.316, -1.513e-4, 2.925e-2, 2.685e+1
-1.255, -1.380e-4, 2.474e-2, 2.746e+1
-1.194, -1.242e-4, 2.535e-2, 2.807e+1
-1.133, -1.101e-4, 2.150e-2, 2.868e+1
-1.072, -9.575e-5, 2.640e-2, 2.929e+1
-1.011, -8.161e-5, 2.335e-2, 2.990e+1
-0.950, -6.778e-5, 2.696e-2, 3.051e+1
-0.889, -5.486e-5, 2.098e-2, 3.112e+1
-0.828, -4.300e-5, 2.210e-2, 3.173e+1
-0.767, -3.275e-5, 1.856e-2, 3.234e+1
-0.706, -2.404e-5, 2.139e-2, 3.295e+1
-0.645, -1.718e-5, 1.827e-2, 3.356e+1
-0.584, -1.193e-5, 2.059e-2, 3.417e+1
-0.523, -8.262e-6, 1.918e-2, 3.478e+1
-0.462, -5.564e-6, 2.144e-2, 3.539e+1
-0.401, -3.796e-6, 1.844e-2, 3.600e+1
-0.340, -2.381e-6, 1.993e-2, 3.661e+1
-0.279, -1.389e-6, 1.910e-2, 3.722e+1
-0.218, -5.042e-7, 2.174e-2, 3.783e+1
-0.157, 1.190e-7, 1.860e-2, 3.844e+1
-0.096, 7.380e-7, 1.880e-2, 3.905e+1
-0.035, 1.077e-6, 1.928e-2, 3.966e+1
-0.026, 5.903e-7, 2.012e-2, 4.027e+1
-0.087, -3.012e-7, 1.951e-2, 4.088e+1
-0.148, -1.090e-6, 1.896e-2, 4.149e+1
-0.209, -2.041e-6, 1.845e-2, 4.210e+1
-0.270, -3.088e-6, 2.037e-2, 4.271e+1
-0.331, -4.725e-6, 1.918e-2, 4.332e+1
-0.392, -6.710e-6, 1.966e-2, 4.393e+1
-0.453, -9.641e-6, 1.926e-2, 4.454e+1
-0.514, -1.382e-5, 1.985e-2, 4.515e+1
-0.575, -2.055e-5, 2.007e-2, 4.576e+1
-0.636, -3.043e-5, 1.942e-2, 4.637e+1
-0.697, -4.493e-5, 1.909e-2, 4.698e+1
-0.758, -6.472e-5, 1.941e-2, 4.759e+1
-0.819, -8.908e-5, 2.740e-2, 4.820e+1
-0.880, -1.137e-4, 2.763e-2, 4.881e+1
-0.941, -1.405e-4, 3.108e-2, 4.942e+1
-1.002, -1.683e-4, 3.385e-2, 5.003e+1
-1.063, -1.971e-4, 3.218e-2, 5.064e+1
-1.124, -2.252e-4, 3.403e-2, 5.125e+1
-1.185, -2.504e-4, 3.385e-2, 5.186e+1
-1.246, -2.707e-4, 3.941e-2, 5.247e+1
-1.307, -2.858e-4, 3.770e-2, 5.308e+1
-1.368, -2.957e-4, 4.328e-2, 5.369e+1
-1.429, -3.007e-4, 4.072e-2, 5.430e+1
-1.490, -3.014e-4, 4.302e-2, 5.491e+1
-1.551, -3.051e-4, 4.291e-2, 5.552e+1
-1.612, -3.217e-4, 5.559e-2, 5.613e+1
-1.673, -3.351e-4, 5.965e-2, 5.674e+1
-1.734, -3.403e-4, 7.185e-2, 5.735e+1
-1.795, -3.477e-4, 8.036e-2, 5.796e+1
-1.856, -3.621e-4, 1.105e-1, 5.857e+1
-1.917, -3.845e-4, 1.366e-1, 5.918e+1
-1.978, -4.179e-4, 1.783e-1, 5.979e+1
-1.961, -3.481e-4, 1.298e-1, 6.040e+1
-1.900, -2.794e-4, 8.888e-2, 6.101e+1
-1.839, -2.408e-4, 6.434e-2, 6.162e+1
-1.778, -2.173e-4, 5.514e-2, 6.223e+1
-1.717, -2.016e-4, 4.554e-2, 6.284e+1
-1.656, -1.897e-4, 3.925e-2, 6.345e+1
-1.595, -1.796e-4, 3.385e-2, 6.406e+1
-1.534, -1.700e-4, 3.282e-2, 6.467e+1
-1.473, -1.603e-4, 3.063e-2, 6.528e+1
-1.412, -1.502e-4, 2.961e-2, 6.589e+1
-1.351, -1.394e-4, 2.496e-2, 6.650e+1
-1.290, -1.280e-4, 2.655e-2, 6.711e+1
-1.229, -1.159e-4, 2.583e-2, 6.772e+1
-1.168, -1.035e-4, 2.386e-2, 6.833e+1
-1.107, -9.053e-5, 2.365e-2, 6.894e+1
-1.046, -7.773e-5, 2.259e-2, 6.955e+1
-0.985, -6.508e-5, 2.689e-2, 7.016e+1
-0.924, -5.315e-5, 2.187e-2, 7.077e+1
-0.863, -4.196e-5, 2.360e-2, 7.138e+1
-0.802, -3.230e-5, 1.798e-2, 7.199e+1
-0.741, -2.396e-5, 2.022e-2, 7.260e+1
-0.680, -1.722e-5, 1.919e-2, 7.321e+1
-0.619, -1.198e-5, 2.080e-2, 7.382e+1
-0.558, -8.182e-6, 1.856e-2, 7.443e+1
-0.497, -5.456e-6, 2.035e-2, 7.504e+1
-0.436, -3.630e-6, 1.679e-2, 7.565e+1
-0.375, -2.300e-6, 2.072e-2, 7.626e+1
-0.314, -1.304e-6, 1.897e-2, 7.687e+1
-0.253, -4.907e-7, 2.150e-2, 7.748e+1
-0.192, 1.147e-7, 1.851e-2, 7.809e+1
-0.131, 6.186e-7, 1.917e-2, 7.870e+1
-0.070, 1.078e-6, 1.816e-2, 7.931e+1
-0.009, 1.412e-6, 1.946e-2, 7.992e+1
-0.052, 3.651e-7, 1.982e-2, 8.053e+1
-0.113, -4.236e-7, 1.911e-2, 8.114e+1
-0.174, -1.143e-6, 1.877e-2, 8.175e+1
-0.235, -2.084e-6, 1.909e-2, 8.236e+1
-0.296, -3.228e-6, 1.967e-2, 8.297e+1
-0.357, -4.783e-6, 1.914e-2, 8.358e+1
-0.418, -6.778e-6, 1.996e-2, 8.419e+1
-0.479, -9.915e-6, 1.679e-2, 8.480e+1
-0.540, -1.441e-5, 2.029e-2, 8.541e+1
-0.601, -2.159e-5, 1.823e-2, 8.602e+1
-0.662, -3.211e-5, 2.170e-2, 8.663e+1
-0.723, -4.755e-5, 1.788e-2, 8.724e+1
-0.784, -6.839e-5, 2.066e-2, 8.785e+1
-0.845, -9.244e-5, 2.072e-2, 8.846e+1
-0.906, -1.178e-4, 2.788e-2, 8.907e+1
-0.967, -1.463e-4, 3.005e-2, 8.968e+1
-1.028, -1.767e-4, 3.254e-2, 9.029e+1
-1.089, -2.078e-4, 2.707e-2, 9.090e+1
-1.150, -2.374e-4, 3.517e-2, 9.151e+1
-1.211, -2.632e-4, 3.725e-2, 9.212e+1
-1.272, -2.835e-4, 3.845e-2, 9.273e+1
-1.333, -2.979e-4, 3.534e-2, 9.334e+1
-1.394, -3.067e-4, 3.897e-2, 9.395e+1
-1.455, -3.101e-4, 3.686e-2, 9.456e+1
-1.516, -3.105e-4, 4.263e-2, 9.517e+1
-1.577, -3.175e-4, 4.668e-2, 9.578e+1
-1.638, -3.338e-4, 5.529e-2, 9.639e+1
-1.699, -3.422e-4, 6.500e-2, 9.700e+1
-1.760, -3.467e-4, 7.821e-2, 9.761e+1
-1.821, -3.555e-4, 9.641e-2, 9.822e+1
-1.882, -3.704e-4, 1.281e-1, 9.883e+1
-1.943, -3.939e-4, 1.638e-1, 9.944e+1
-1.996, -4.131e-4, 1.865e-1, 1.001e+2
-1.935, -3.115e-4, 1.120e-1, 1.007e+2
-1.874, -2.607e-4, 8.029e-2, 1.013e+2
-1.813, -2.308e-4, 6.322e-2, 1.019e+2
-1.752, -2.116e-4, 4.816e-2, 1.025e+2
-1.691, -1.978e-4, 4.013e-2, 1.031e+2
-1.630, -1.866e-4, 3.724e-2, 1.037e+2
-1.569, -1.764e-4, 3.093e-2, 1.043e+2
-1.508, -1.665e-4, 3.041e-2, 1.049e+2
-1.447, -1.560e-4, 2.909e-2, 1.055e+2
-1.386, -1.452e-4, 2.729e-2, 1.062e+2
-1.325, -1.338e-4, 2.778e-2, 1.068e+2
-1.264, -1.219e-4, 2.411e-2, 1.074e+2
-1.203, -1.092e-4, 2.429e-2, 1.080e+2
-1.142, -9.641e-5, 2.117e-2, 1.086e+2
-1.081, -8.330e-5, 2.295e-2, 1.092e+2
-1.020, -7.049e-5, 2.307e-2, 1.098e+2
-0.959, -5.812e-5, 2.358e-2, 1.104e+2
-0.898, -4.660e-5, 2.194e-2, 1.110e+2
-0.837, -3.615e-5, 1.867e-2, 1.116e+2
-0.776, -2.727e-5, 1.859e-2, 1.123e+2
-0.715, -1.979e-5, 1.869e-2, 1.129e+2
-0.654, -1.396e-5, 2.038e-2, 1.135e+2
-0.593, -9.555e-6, 1.896e-2, 1.141e+2
-0.532, -6.380e-6, 2.026e-2, 1.147e+2
-0.471, -4.245e-6, 1.660e-2, 1.153e+2
-0.410, -2.714e-6, 2.044e-2, 1.159e+2
-0.349, -1.619e-6, 1.822e-2, 1.165e+2
-0.288, -8.044e-7, 2.111e-2, 1.171e+2
-0.227, -7.599e-8, 1.786e-2, 1.177e+2
-0.166, 4.322e-7, 2.078e-2, 1.184e+2
-0.105, 8.979e-7, 1.718e-2, 1.190e+2
-0.044, 1.283e-6, 2.042e-2, 1.196e+2
-0.017, 8.887e-7, 1.823e-2, 1.202e+2
-0.078, 1.283e-7, 2.093e-2, 1.208e+2
-0.139, -5.989e-7, 1.819e-2, 1.214e+2
-0.200, -1.332e-6, 2.136e-2, 1.220e+2
-0.261, -2.309e-6, 1.778e-2, 1.226e+2
-0.322, -3.428e-6, 2.131e-2, 1.232e+2
-0.383, -5.121e-6, 1.813e-2, 1.238e+2
-0.444, -7.261e-6, 2.004e-2, 1.245e+2
-0.505, -1.056e-5, 1.978e-2, 1.251e+2
-0.566, -1.552e-5, 1.912e-2, 1.257e+2
-0.627, -2.334e-5, 1.829e-2, 1.263e+2
-0.688, -3.462e-5, 1.788e-2, 1.269e+2
-0.749, -5.102e-5, 1.972e-2, 1.275e+2
-0.810, -7.221e-5, 2.110e-2, 1.281e+2
-0.871, -9.528e-5, 2.684e-2, 1.287e+2
-0.932, -1.214e-4, 2.594e-2, 1.293e+2
-0.993, -1.503e-4, 2.894e-2, 1.299e+2
-1.054, -1.811e-4, 2.596e-2, 1.306e+2
-1.115, -2.124e-4, 3.156e-2, 1.312e+2
-1.176, -2.414e-4, 3.068e-2, 1.318e+2
-1.237, -2.659e-4, 3.680e-2, 1.324e+2
-1.298, -2.848e-4, 3.386e-2, 1.330e+2
-1.359, -2.978e-4, 4.084e-2, 1.336e+2
-1.420, -3.050e-4, 3.507e-2, 1.342e+2
-1.481, -3.074e-4, 4.134e-2, 1.348e+2
-1.542, -3.094e-4, 4.126e-2, 1.354e+2
-1.603, -3.222e-4, 5.397e-2, 1.360e+2
-1.664, -3.367e-4, 5.682e-2, 1.367e+2
-1.725, -3.418e-4, 6.795e-2, 1.373e+2
-1.786, -3.470e-4, 8.916e-2, 1.379e+2
-1.847, -3.578e-4, 1.121e-1, 1.385e+2
-1.908, -3.753e-4, 1.413e-1, 1.391e+2
-1.969, -4.032e-4, 1.858e-1, 1.397e+2
-1.970, -3.558e-4, 1.477e-1, 1.403e+2
-1.909, -2.840e-4, 9.322e-2, 1.409e+2
-1.848, -2.443e-4, 7.159e-2, 1.415e+2
-1.787, -2.200e-4, 5.220e-2, 1.421e+2
-1.726, -2.035e-4, 4.405e-2, 1.428e+2
-1.665, -1.909e-4, 3.849e-2, 1.434e+2
-1.604, -1.802e-4, 3.618e-2, 1.440e+2
-1.543, -1.707e-4, 3.049e-2, 1.446e+2
-1.482, -1.605e-4, 2.823e-2, 1.452e+2
-1.421, -1.498e-4, 2.425e-2, 1.458e+2
-1.360, -1.386e-4, 2.719e-2, 1.464e+2
-1.299, -1.267e-4, 2.234e-2, 1.470e+2
-1.238, -1.144e-4, 2.647e-2, 1.476e+2
-1.177, -1.017e-4, 2.185e-2, 1.482e+2
-1.116, -8.868e-5, 2.491e-2, 1.488e+2
-1.055, -7.571e-5, 2.093e-2, 1.495e+2
-0.994, -6.313e-5, 2.261e-2, 1.501e+2
-0.933, -5.124e-5, 2.120e-2, 1.507e+2
-0.872, -4.028e-5, 2.217e-2, 1.513e+2
-0.811, -3.081e-5, 1.804e-2, 1.519e+2
-0.750, -2.269e-5, 2.250e-2, 1.525e+2
-0.689, -1.626e-5, 1.728e-2, 1.531e+2
-0.628, -1.116e-5, 1.979e-2, 1.537e+2
-0.567, -7.549e-6, 1.754e-2, 1.543e+2
-0.506, -4.946e-6, 2.361e-2, 1.549e+2
-0.445, -3.231e-6, 1.867e-2, 1.556e+2
-0.384, -1.964e-6, 1.938e-2, 1.562e+2
-0.323, -1.102e-6, 1.902e-2, 1.568e+2
-0.262, -3.135e-7, 1.880e-2, 1.574e+2
-0.201, 2.175e-7, 1.808e-2, 1.580e+2
-0.140, 7.521e-7, 1.840e-2, 1.586e+2
-0.079, 1.117e-6, 1.957e-2, 1.592e+2
-0.018, 1.445e-6, 1.882e-2, 1.598e+2
-0.043, 5.749e-7, 2.089e-2, 1.604e+2
-0.104, -6.861e-8, 1.813e-2, 1.610e+2
-0.165, -7.841e-7, 2.031e-2, 1.617e+2
-0.226, -1.589e-6, 1.650e-2, 1.623e+2
-0.287, -2.515e-6, 1.983e-2, 1.629e+2
-0.348, -3.811e-6, 1.645e-2, 1.635e+2
-0.409, -5.424e-6, 2.068e-2, 1.641e+2
-0.470, -7.899e-6, 1.874e-2, 1.647e+2
-0.531, -1.149e-5, 2.039e-2, 1.653e+2
-0.592, -1.720e-5, 1.819e-2, 1.659e+2
-0.653, -2.566e-5, 1.977e-2, 1.665e+2
-0.714, -3.824e-5, 1.634e-2, 1.671e+2
-0.775, -5.579e-5, 2.010e-2, 1.677e+2
-0.836, -7.722e-5, 1.923e-2, 1.684e+2
-0.897, -1.004e-4, 2.630e-2, 1.690e+2
-0.958, -1.275e-4, 2.816e-2, 1.696e+2
-1.019, -1.574e-4, 2.936e-2, 1.702e+2
-1.080, -1.890e-4, 2.947e-2, 1.708e+2
-1.141, -2.203e-4, 2.924e-2, 1.714e+2
-1.202, -2.488e-4, 3.148e-2, 1.720e+2
-1.263, -2.720e-4, 3.406e-2, 1.726e+2
-1.324, -2.896e-4, 3.703e-2, 1.732e+2
-1.385, -3.011e-4, 3.417e-2, 1.738e+2
-1.446, -3.068e-4, 3.745e-2, 1.745e+2
-1.507, -3.085e-4, 4.133e-2, 1.751e+2
-1.568, -3.141e-4, 4.324e-2, 1.757e+2
-1.629, -3.300e-4, 5.232e-2, 1.763e+2
-1.690, -3.399e-4, 6.178e-2, 1.769e+2
-1.751, -3.436e-4, 7.743e-2, 1.775e+2
-1.812, -3.506e-4, 1.028e-1, 1.781e+2
-1.873, -3.634e-4, 1.307e-1, 1.787e+2
-1.934, -3.839e-4, 1.724e-1, 1.793e+2
-1.995, -4.150e-4, 2.062e-1, 1.799e+2
-1.944, -3.176e-4, 1.283e-1, 1.806e+2
-1.883, -2.638e-4, 7.987e-2, 1.812e+2
-1.822, -2.323e-4, 6.264e-2, 1.818e+2
-1.761, -2.122e-4, 4.685e-2, 1.824e+2
-1.700, -1.977e-4, 4.460e-2, 1.830e+2
-1.639, -1.859e-4, 3.540e-2, 1.836e+2
-1.578, -1.753e-4, 3.380e-2, 1.842e+2
-1.517, -1.649e-4, 2.932e-2, 1.848e+2
-1.456, -1.542e-4, 2.924e-2, 1.854e+2
-1.395, -1.431e-4, 2.480e-2, 1.860e+2
-1.334, -1.314e-4, 2.342e-2, 1.866e+2
-1.273, -1.194e-4, 2.500e-2, 1.873e+2
-1.212, -1.066e-4, 2.423e-2, 1.879e+2
-1.151, -9.369e-5, 2.235e-2, 1.885e+2
-1.090, -8.068e-5, 2.164e-2, 1.891e+2
-1.029, -6.799e-5, 2.204e-2, 1.897e+2
-0.968, -5.583e-5, 2.069e-2, 1.903e+2
-0.907, -4.453e-5, 2.169e-2, 1.909e+2
-0.846, -3.439e-5, 1.766e-2, 1.915e+2
-0.785, -2.583e-5, 2.063e-2, 1.921e+2
-0.724, -1.869e-5, 1.748e-2, 1.927e+2
-0.663, -1.309e-5, 2.102e-2, 1.934e+2
-0.602, -8.908e-6, 1.775e-2, 1.940e+2
-0.541, -5.889e-6, 1.985e-2, 1.946e+2
-0.480, -3.840e-6, 1.622e-2, 1.952e+2
-0.419, -2.376e-6, 1.920e-2, 1.958e+2
-0.358, -1.393e-6, 1.672e-2, 1.964e+2
-0.297, -5.829e-7, 2.100e-2, 1.970e+2
-0.236, 6.982e-8, 1.736e-2, 1.976e+2
-0.175, 5.294e-7, 2.100e-2, 1.982e+2
-0.114, 9.330e-7, 1.714e-2, 1.988e+2
-0.053, 1.286e-6, 1.989e-2, 1.994e+2
-0.008, 1.160e-6, 1.695e-2, 2.001e+2
-0.069, 3.891e-7, 1.885e-2, 2.007e+2
-0.130, -2.716e-7, 1.701e-2, 2.013e+2
-0.191, -9.595e-7, 2.020e-2, 2.019e+2
-0.252, -1.832e-6, 2.024e-2, 2.025e+2
-0.313, -2.797e-6, 1.914e-2, 2.031e+2
-0.374, -4.164e-6, 1.818e-2, 2.037e+2
-0.435, -5.941e-6, 1.922e-2, 2.043e+2
-0.496, -8.671e-6, 1.778e-2, 2.049e+2
-0.557, -1.267e-5, 1.839e-2, 2.055e+2
-0.618, -1.908e-5, 1.902e-2, 2.062e+2
-0.679, -2.851e-5, 1.885e-2, 2.068e+2
-0.740, -4.222e-5, 2.013e-2, 2.074e+2
-0.801, -6.085e-5, 1.843e-2, 2.080e+2
-0.862, -8.207e-5, 2.395e-2, 2.086e+2
-0.923, -1.062e-4, 2.308e-2, 2.092e+2
-0.984, -1.342e-4, 2.891e-2, 2.098e+2
-1.045, -1.649e-4, 2.517e-2, 2.104e+2
-1.106, -1.968e-4, 2.987e-2, 2.110e+2
-1.167, -2.277e-4, 3.051e-2, 2.116e+2
-1.228, -2.549e-4, 3.446e-2, 2.123e+2
-1.289, -2.766e-4, 3.663e-2, 2.129e+2
-1.350, -2.927e-4, 3.681e-2, 2.135e+2
-1.411, -3.024e-4, 3.533e-2, 2.141e+2
-1.472, -3.065e-4, 3.895e-2, 2.147e+2
-1.533, -3.086e-4, 3.902e-2, 2.153e+2
-1.594, -3.190e-4, 4.909e-2, 2.159e+2
-1.655, -3.339e-4, 5.483e-2, 2.165e+2
-1.716, -3.399e-4, 6.689e-2, 2.171e+2
-1.777, -3.439e-4, 8.860e-2, 2.177e+2
-1.838, -3.530e-4, 1.157e-1, 2.183e+2
-1.899, -3.677e-4, 1.464e-1, 2.190e+2
-1.960, -3.915e-4, 1.860e-1, 2.196e+2
-1.979, -3.645e-4, 1.734e-1, 2.202e+2
-1.918, -2.878e-4, 1.088e-1, 2.208e+2
-1.857, -2.465e-4, 7.727e-2, 2.214e+2
-1.796, -2.213e-4, 5.975e-2, 2.220e+2
-1.735, -2.043e-4, 4.828e-2, 2.226e+2
-1.674, -1.912e-4, 3.975e-2, 2.232e+2
-1.613, -1.800e-4, 3.315e-2, 2.238e+2
-1.552, -1.694e-4, 2.998e-2, 2.244e+2
-1.491, -1.588e-4, 2.988e-2, 2.251e+2
-1.430, -1.477e-4, 2.403e-2, 2.257e+2
-1.369, -1.363e-4, 2.553e-2, 2.263e+2
-1.308, -1.243e-4, 2.538e-2, 2.269e+2
-1.247, -1.119e-4, 2.450e-2, 2.275e+2
-1.186, -9.909e-5, 2.152e-2, 2.281e+2
-1.125, -8.612e-5, 2.348e-2, 2.287e+2
-1.064, -7.330e-5, 2.068e-2, 2.293e+2
-1.003, -6.088e-5, 2.149e-2, 2.299e+2
-0.942, -4.919e-5, 1.892e-2, 2.305e+2
-0.881, -3.861e-5, 2.317e-2, 2.312e+2
-0.820, -2.942e-5, 1.739e-2, 2.318e+2
-0.759, -2.165e-5, 2.154e-2, 2.324e+2
-0.698, -1.538e-5, 1.758e-2, 2.330e+2
-0.637, -1.055e-5, 2.152e-2, 2.336e+2
-0.576, -7.068e-6, 1.777e-2, 2.342e+2
-0.515, -4.554e-6, 1.973e-2, 2.348e+2
-0.454, -2.955e-6, 1.647e-2, 2.354e+2
-0.393, -1.719e-6, 1.853e-2, 2.360e+2
-0.332, -9.029e-7, 1.769e-2, 2.366e+2
-0.271, -1.351e-7, 1.869e-2, 2.372e+2
-0.210, 2.938e-7, 1.819e-2, 2.379e+2
-0.149, 7.896e-7, 1.891e-2, 2.385e+2
-0.088, 1.131e-6, 1.940e-2, 2.391e+2
-0.027, 1.520e-6, 1.843e-2, 2.397e+2
-0.034, 7.669e-7, 1.945e-2, 2.403e+2
-0.095, 1.350e-7, 1.812e-2, 2.409e+2
-0.156, -4.962e-7, 1.873e-2, 2.415e+2
-0.217, -1.143e-6, 1.745e-2, 2.421e+2
-0.278, -2.076e-6, 1.897e-2, 2.427e+2
-0.339, -3.143e-6, 1.676e-2, 2.433e+2
-0.400, -4.561e-6, 2.041e-2, 2.440e+2
-0.461, -6.530e-6, 1.765e-2, 2.446e+2
-0.522, -9.608e-6, 2.134e-2, 2.452e+2
-0.583, -1.424e-5, 1.767e-2, 2.458e+2
-0.644, -2.140e-5, 2.007e-2, 2.464e+2
-0.705, -3.192e-5, 1.697e-2, 2.470e+2
-0.766, -4.699e-5, 1.930e-2, 2.476e+2
-0.827, -6.628e-5, 1.840e-2, 2.482e+2
-0.888, -8.754e-5, 2.610e-2, 2.488e+2
-0.949, -1.131e-4, 2.433e-2, 2.494e+2
-1.010, -1.420e-4, 2.663e-2, 2.501e+2
-1.071, -1.734e-4, 2.570e-2, 2.507e+2
-1.132, -2.054e-4, 2.920e-2, 2.513e+2
-1.193, -2.355e-4, 2.901e-2, 2.519e+2
-1.254, -2.611e-4, 3.167e-2, 2.525e+2
-1.315, -2.813e-4, 3.280e-2, 2.531e+2
-1.376, -2.953e-4, 3.183e-2, 2.537e+2
-1.437, -3.030e-4, 3.620e-2, 2.543e+2
-1.498, -3.058e-4, 3.905e-2, 2.549e+2
-1.559, -3.100e-4, 4.381e-2, 2.555e+2
-1.620, -3.239e-4, 5.128e-2, 2.561e+2
-1.681, -3.349e-4, 6.379e-2, 2.568e+2
-1.742, -3.388e-4, 7.569e-2, 2.574e+2
-1.803, -3.445e-4, 9.933e-2, 2.580e+2
-1.864, -3.554e-4, 1.274e-1, 2.586e+2
-1.925, -3.725e-4, 1.634e-1, 2.592e+2
-1.986, -3.990e-4, 2.125e-1, 2.598e+2
-1.953, -3.207e-4, 1.317e-1, 2.604e+2
-1.892, -2.646e-4, 8.552e-2, 2.610e+2
-1.831, -2.324e-4, 6.811e-2, 2.616e+2
-1.770, -2.117e-4, 5.174e-2, 2.623e+2
-1.709, -1.968e-4, 4.173e-2, 2.629e+2
-1.648, -1.848e-4, 3.538e-2, 2.635e+2
-1.587, -1.739e-4, 3.299e-2, 2.641e+2
-1.526, -1.633e-4, 2.658e-2, 2.647e+2
-1.465, -1.523e-4, 2.970e-2, 2.653e+2
-1.404, -1.411e-4, 2.336e-2, 2.659e+2
-1.343, -1.293e-4, 2.471e-2, 2.665e+2
-1.282, -1.172e-4, 2.268e-2, 2.671e+2
-1.221, -1.044e-4, 2.175e-2, 2.678e+2
-1.160, -9.165e-5, 2.258e-2, 2.684e+2
-1.099, -7.873e-5, 2.054e-2, 2.690e+2
-1.038, -6.619e-5, 2.336e-2, 2.696e+2
-0.977, -5.421e-5, 2.153e-2, 2.702e+2
-0.916, -4.312e-5, 2.204e-2, 2.708e+2
-0.855, -3.331e-5, 1.893e-2, 2.714e+2
-0.794, -2.498e-5, 1.968e-2, 2.720e+2
-0.733, -1.806e-5, 1.723e-2, 2.726e+2
-0.672, -1.260e-5, 1.981e-2, 2.732e+2
-0.611, -8.499e-6, 1.594e-2, 2.739e+2
-0.550, -5.577e-6, 1.937e-2, 2.745e+2
-0.489, -3.551e-6, 1.621e-2, 2.751e+2
-0.428, -2.195e-6, 1.977e-2, 2.757e+2
-0.367, -1.241e-6, 1.698e-2, 2.763e+2
-0.306, -4.661e-7, 1.992e-2, 2.769e+2
-0.245, 1.086e-7, 1.673e-2, 2.775e+2
-0.184, 5.614e-7, 2.002e-2, 2.781e+2
-0.123, 9.441e-7, 1.692e-2, 2.787e+2
-0.062, 1.343e-6, 1.993e-2, 2.794e+2
-0.001, 1.586e-6, 1.625e-2, 2.800e+2
-0.060, 5.700e-7, 1.919e-2, 2.806e+2
-0.121, -5.446e-8, 1.678e-2, 2.812e+2
-0.182, -6.925e-7, 1.888e-2, 2.818e+2
-0.243, -1.480e-6, 1.760e-2, 2.824e+2
-0.304, -2.267e-6, 1.889e-2, 2.830e+2
-0.365, -3.542e-6, 1.814e-2, 2.836e+2
-0.426, -5.026e-6, 1.866e-2, 2.842e+2
-0.487, -7.305e-6, 1.936e-2, 2.848e+2
-0.548, -1.070e-5, 1.900e-2, 2.855e+2
-0.609, -1.608e-5, 1.840e-2, 2.861e+2
-0.670, -2.408e-5, 1.748e-2, 2.867e+2
-0.731, -3.586e-5, 1.874e-2, 2.873e+2
-0.792, -5.231e-5, 1.774e-2, 2.879e+2
-0.853, -7.176e-5, 2.236e-2, 2.885e+2
-0.914, -9.406e-5, 2.118e-2, 2.891e+2
-0.975, -1.208e-4, 2.717e-2, 2.897e+2
-1.036, -1.506e-4, 2.429e-2, 2.903e+2
-1.097, -1.825e-4, 2.869e-2, 2.910e+2
-1.158, -2.143e-4, 2.876e-2, 2.916e+2
-1.219, -2.432e-4, 3.108e-2, 2.922e+2
-1.280, -2.671e-4, 2.819e-2, 2.928e+2
-1.341, -2.853e-4, 3.407e-2, 2.934e+2
-1.402, -2.973e-4, 3.041e-2, 2.940e+2
-1.463, -3.031e-4, 3.899e-2, 2.946e+2
-1.524, -3.055e-4, 3.562e-2, 2.952e+2
-1.585, -3.133e-4, 4.530e-2, 2.958e+2
-1.646, -3.276e-4, 4.860e-2, 2.964e+2
-1.707, -3.343e-4, 7.142e-2, 2.971e+2
-1.768, -3.381e-4, 8.835e-2, 2.977e+2
-1.829, -3.458e-4, 1.152e-1, 2.983e+2
-1.890, -3.583e-4, 1.457e-1, 2.989e+2
-1.951, -3.779e-4, 1.980e-1, 2.995e+2
-1.988, -3.710e-4, 1.920e-1, 3.001e+2
-1.927, -2.891e-4, 1.089e-1, 3.007e+2
-1.866, -2.467e-4, 8.099e-2, 3.013e+2
-1.805, -2.218e-4, 5.513e-2, 3.019e+2
-1.744, -2.045e-4, 4.521e-2, 3.026e+2
-1.683, -1.924e-4, 3.433e-2, 3.032e+2
-1.622, -1.814e-4, 3.220e-2, 3.038e+2
-1.561, -1.706e-4, 2.748e-2, 3.044e+2
-1.500, -1.598e-4, 3.027e-2, 3.050e+2
-1.439, -1.485e-4, 2.447e-2, 3.056e+2
-1.378, -1.370e-4, 2.657e-2, 3.062e+2
-1.317, -1.250e-4, 2.272e-2, 3.068e+2
-1.256, -1.127e-4, 2.437e-2, 3.074e+2
-1.195, -9.999e-5, 2.200e-2, 3.080e+2
-1.134, -8.710e-5, 2.218e-2, 3.087e+2
-1.073, -7.439e-5, 1.996e-2, 3.093e+2
-1.012, -6.208e-5, 2.288e-2, 3.099e+2
-0.951, -5.046e-5, 1.794e-2, 3.105e+2
-0.890, -3.977e-5, 2.054e-2, 3.111e+2
-0.829, -3.048e-5, 1.692e-2, 3.117e+2
-0.768, -2.267e-5, 2.028e-2, 3.123e+2
-0.707, -1.621e-5, 1.765e-2, 3.129e+2
-0.646, -1.121e-5, 1.985e-2, 3.135e+2
-0.585, -7.573e-6, 1.718e-2, 3.142e+2
-0.524, -4.965e-6, 2.033e-2, 3.148e+2
-0.463, -3.208e-6, 1.716e-2, 3.154e+2
-0.402, -1.959e-6, 2.000e-2, 3.160e+2
-0.341, -1.080e-6, 1.585e-2, 3.166e+2
-0.280, -3.602e-7, 1.970e-2, 3.172e+2
-0.219, 2.310e-7, 1.541e-2, 3.178e+2
-0.158, 6.604e-7, 1.949e-2, 3.184e+2
-0.097, 1.052e-6, 1.590e-2, 3.190e+2
-0.036, 1.378e-6, 1.940e-2, 3.197e+2
-0.025, 8.924e-7, 1.805e-2, 3.203e+2
-0.086, 2.329e-7, 1.983e-2, 3.209e+2
-0.147, -4.144e-7, 1.774e-2, 3.215e+2
-0.208, -1.063e-6, 2.077e-2, 3.221e+2
-0.269, -1.955e-6, 1.650e-2, 3.227e+2
-0.330, -2.973e-6, 2.044e-2, 3.233e+2
-0.391, -4.352e-6, 1.686e-2, 3.239e+2
-0.452, -6.184e-6, 2.021e-2, 3.245e+2
-0.513, -9.041e-6, 1.630e-2, 3.251e+2
-0.574, -1.331e-5, 1.877e-2, 3.258e+2
-0.635, -1.995e-5, 1.596e-2, 3.264e+2
-0.696, -2.968e-5, 1.878e-2, 3.270e+2
-0.757, -4.381e-5, 1.693e-2, 3.276e+2
-0.818, -6.242e-5, 2.043e-2, 3.282e+2
-0.879, -8.319e-5, 2.133e-2, 3.288e+2
-0.940, -1.079e-4, 2.453e-2, 3.294e+2
-1.001, -1.365e-4, 2.356e-2, 3.300e+2
-1.062, -1.677e-4, 2.911e-2, 3.306e+2
-1.123, -1.999e-4, 2.654e-2, 3.313e+2
-1.184, -2.306e-4, 3.031e-2, 3.319e+2
-1.245, -2.573e-4, 2.795e-2, 3.325e+2
-1.306, -2.782e-4, 3.274e-2, 3.331e+2
-1.367, -2.933e-4, 2.953e-2, 3.337e+2
-1.428, -3.019e-4, 3.409e-2, 3.343e+2
-1.489, -3.052e-4, 3.514e-2, 3.349e+2
-1.550, -3.084e-4, 4.089e-2, 3.355e+2
-1.611, -3.209e-4, 4.434e-2, 3.361e+2
-1.672, -3.334e-4, 6.075e-2, 3.367e+2
-1.733, -3.381e-4, 7.602e-2, 3.374e+2
-1.794, -3.432e-4, 1.013e-1, 3.380e+2
-1.855, -3.529e-4, 1.259e-1, 3.386e+2
-1.916, -3.678e-4, 1.723e-1, 3.392e+2
-1.977, -3.920e-4, 2.088e-1, 3.398e+2
-1.962, -3.303e-4, 1.529e-1, 3.404e+2
-1.901, -2.696e-4, 8.710e-2, 3.410e+2
-1.840, -2.354e-4, 6.923e-2, 3.416e+2
-1.779, -2.139e-4, 5.014e-2, 3.422e+2
-1.718, -1.985e-4, 4.348e-2, 3.429e+2
-1.657, -1.862e-4, 3.428e-2, 3.435e+2
-1.596, -1.753e-4, 3.331e-2, 3.441e+2
-1.535, -1.646e-4, 2.615e-2, 3.447e+2
-1.474, -1.537e-4, 2.523e-2, 3.453e+2
-1.413, -1.424e-4, 2.259e-2, 3.459e+2
-1.352, -1.307e-4, 2.462e-2, 3.465e+2
-1.291, -1.187e-4, 2.182e-2, 3.471e+2
-1.230, -1.061e-4, 2.363e-2, 3.477e+2
-1.169, -9.335e-5, 1.999e-2, 3.483e+2
-1.108, -8.048e-5, 2.216e-2, 3.490e+2
-1.047, -6.793e-5, 1.937e-2, 3.496e+2
-0.986, -5.591e-5, 2.278e-2, 3.502e+2
-0.925, -4.481e-5, 1.836e-2, 3.508e+2
-0.864, -3.471e-5, 2.075e-2, 3.514e+2
-0.803, -2.618e-5, 1.808e-2, 3.520e+2
-0.742, -1.907e-5, 1.984e-2, 3.526e+2
-0.681, -1.345e-5, 1.628e-2, 3.532e+2
-0.620, -9.158e-6, 1.932e-2, 3.538e+2
-0.559, -6.038e-6, 1.728e-2, 3.545e+2
-0.498, -3.876e-6, 1.875e-2, 3.551e+2
-0.437, -2.472e-6, 1.582e-2, 3.557e+2
-0.376, -1.414e-6, 1.792e-2, 3.563e+2
-0.315, -6.931e-7, 1.705e-2, 3.569e+2
-0.254, 4.029e-8, 1.873e-2, 3.575e+2
-0.193, 4.746e-7, 1.807e-2, 3.581e+2
-0.132, 9.164e-7, 2.045e-2, 3.587e+2
-0.071, 1.196e-6, 1.784e-2, 3.593e+2
-0.010, 1.563e-6, 2.085e-2, 3.599e+2
-0.051, 5.921e-7, 1.755e-2, 3.606e+2
-0.112, 2.490e-8, 1.996e-2, 3.612e+2
-0.173, -6.475e-7, 1.778e-2, 3.618e+2
-0.234, -1.295e-6, 1.850e-2, 3.624e+2
-0.295, -2.217e-6, 1.764e-2, 3.630e+2
-0.356, -3.298e-6, 1.722e-2, 3.636e+2
-0.417, -4.815e-6, 1.705e-2, 3.642e+2
-0.478, -6.810e-6, 1.753e-2, 3.648e+2
-0.539, -1.006e-5, 1.763e-2, 3.654e+2
-0.600, -1.495e-5, 1.701e-2, 3.661e+2
-0.661, -2.241e-5, 1.791e-2, 3.667e+2
-0.722, -3.329e-5, 1.790e-2, 3.673e+2
-0.783, -4.875e-5, 2.015e-2, 3.679e+2
-0.844, -6.765e-5, 1.947e-2, 3.685e+2
-0.905, -8.899e-5, 2.524e-2, 3.691e+2
-0.966, -1.150e-4, 2.387e-2, 3.697e+2
-1.027, -1.442e-4, 2.712e-2, 3.703e+2
-1.088, -1.758e-4, 2.413e-2, 3.709e+2
-1.149, -2.075e-4, 2.615e-2, 3.716e+2
-1.210, -2.369e-4, 2.640e-2, 3.722e+2
-1.271, -2.615e-4, 2.975e-2, 3.728e+2
-1.332, -2.804e-4, 2.727e-2, 3.734e+2
-1.393, -2.930e-4, 3.421e-2, 3.740e+2
-1.454, -2.995e-4, 3.066e-2, 3.746e+2
-1.515, -3.017e-4, 3.580e-2, 3.752e+2
-1.576, -3.082e-4, 4.081e-2, 3.758e+2
-1.637, -3.222e-4, 5.131e-2, 3.764e+2
-1.698, -3.304e-4, 6.345e-2, 3.770e+2
-1.759, -3.341e-4, 8.726e-2, 3.777e+2
-1.820, -3.412e-4, 1.089e-1, 3.783e+2
-1.881, -3.523e-4, 1.509e-1, 3.789e+2
-1.942, -3.704e-4, 1.876e-1, 3.795e+2
-1.997, -3.866e-4, 2.183e-1, 3.801e+2
-1.936, -2.938e-4, 1.273e-1, 3.807e+2
-1.875, -2.480e-4, 7.762e-2, 3.813e+2
-1.814, -2.208e-4, 6.013e-2, 3.819e+2
-1.753, -2.027e-4, 4.722e-2, 3.825e+2
-1.692, -1.891e-4, 3.857e-2, 3.832e+2
-1.631, -1.776e-4, 3.036e-2, 3.838e+2
-1.570, -1.669e-4, 2.913e-2, 3.844e+2
-1.509, -1.563e-4, 2.369e-2, 3.850e+2
-1.448, -1.453e-4, 2.485e-2, 3.856e+2
-1.387, -1.339e-4, 2.107e-2, 3.862e+2
-1.326, -1.222e-4, 2.296e-2, 3.868e+2
-1.265, -1.100e-4, 2.100e-2, 3.874e+2
-1.204, -9.753e-5, 2.400e-2, 3.880e+2
-1.143, -8.492e-5, 1.989e-2, 3.886e+2
-1.082, -7.241e-5, 2.143e-2, 3.893e+2
-1.021, -6.038e-5, 2.004e-2, 3.899e+2
-0.960, -4.893e-5, 2.134e-2, 3.905e+2
-0.899, -3.859e-5, 2.210e-2, 3.911e+2
-0.838, -2.942e-5, 1.926e-2, 3.917e+2
-0.777, -2.192e-5, 1.828e-2, 3.923e+2
-0.716, -1.560e-5, 1.810e-2, 3.929e+2
-0.655, -1.079e-5, 1.736e-2, 3.935e+2
-0.594, -7.168e-6, 1.718e-2, 3.941e+2
-0.533, -4.698e-6, 1.780e-2, 3.948e+2
-0.472, -2.984e-6, 1.633e-2, 3.954e+2
-0.411, -1.803e-6, 1.789e-2, 3.960e+2
-0.350, -9.047e-7, 1.558e-2, 3.966e+2
-0.289, -2.316e-7, 1.820e-2, 3.972e+2
-0.228, 2.839e-7, 1.637e-2, 3.978e+2
-0.167, 7.324e-7, 1.979e-2, 3.984e+2
-0.106, 1.081e-6, 1.597e-2, 3.990e+2
-0.045, 1.396e-6, 1.994e-2, 3.996e+2
-0.016, 1.090e-6, 1.612e-2, 4.002e+2
-0.077, 4.002e-7, 2.037e-2, 4.009e+2
-0.138, -2.212e-7, 1.776e-2, 4.015e+2
-0.199, -8.044e-7, 1.973e-2, 4.021e+2
-0.260, -1.596e-6, 1.711e-2, 4.027e+2
-0.321, -2.463e-6, 1.882e-2, 4.033e+2
-0.382, -3.715e-6, 1.774e-2, 4.039e+2
-0.443, -5.252e-6, 1.856e-2, 4.045e+2
-0.504, -7.643e-6, 1.658e-2, 4.051e+2
-0.565, -1.124e-5, 1.729e-2, 4.057e+2
-0.626, -1.696e-5, 1.630e-2, 4.064e+2
-0.687, -2.523e-5, 1.717e-2, 4.070e+2
-0.748, -3.753e-5, 1.731e-2, 4.076e+2
-0.809, -5.411e-5, 1.823e-2, 4.082e+2
-0.870, -7.327e-5, 2.074e-2, 4.088e+2
-0.931, -9.614e-5, 2.523e-2, 4.094e+2
-0.992, -1.232e-4, 2.646e-2, 4.100e+2
-1.053, -1.535e-4, 2.478e-2, 4.106e+2
-1.114, -1.854e-4, 2.698e-2, 4.112e+2
-1.175, -2.168e-4, 2.589e-2, 4.119e+2
-1.236, -2.448e-4, 3.180e-2, 4.125e+2
-1.297, -2.678e-4, 2.666e-2, 4.131e+2
-1.358, -2.848e-4, 3.367e-2, 4.137e+2
-1.419, -2.953e-4, 3.016e-2, 4.143e+2
-1.480, -2.999e-4, 3.681e-2, 4.149e+2
-1.541, -3.026e-4, 3.923e-2, 4.155e+2
-1.602, -3.126e-4, 4.765e-2, 4.161e+2
-1.663, -3.247e-4, 5.385e-2, 4.167e+2
-1.724, -3.296e-4, 7.488e-2, 4.173e+2
-1.785, -3.344e-4, 9.385e-2, 4.180e+2
-1.846, -3.433e-4, 1.294e-1, 4.186e+2
-1.907, -3.562e-4, 1.634e-1, 4.192e+2
-1.968, -3.764e-4, 2.190e-1, 4.198e+2
-1.971, -3.319e-4, 1.564e-1, 4.204e+2
-1.910, -2.748e-4, 1.022e-1, 4.210e+2
-1.849, -2.429e-4, 7.184e-2, 4.216e+2
-1.788, -2.227e-4, 5.305e-2, 4.222e+2
-1.727, -2.083e-4, 4.333e-2, 4.228e+2
-1.666, -1.962e-4, 3.243e-2, 4.235e+2
-1.605, -1.851e-4, 3.218e-2, 4.241e+2
-1.544, -1.740e-4, 2.700e-2, 4.247e+2
-1.483, -1.627e-4, 2.737e-2, 4.253e+2
-1.422, -1.509e-4, 2.235e-2, 4.259e+2
-1.361, -1.387e-4, 2.365e-2, 4.265e+2
-1.300, -1.259e-4, 2.179e-2, 4.271e+2
-1.239, -1.128e-4, 2.262e-2, 4.277e+2
-1.178, -9.940e-5, 2.047e-2, 4.283e+2
-1.117, -8.582e-5, 2.283e-2, 4.289e+2
-1.056, -7.254e-5, 1.884e-2, 4.296e+2
-0.995, -5.978e-5, 2.152e-2, 4.302e+2
-0.934, -4.792e-5, 1.830e-2, 4.308e+2
-0.873, -3.724e-5, 1.918e-2, 4.314e+2
-0.812, -2.817e-5, 1.630e-2, 4.320e+2
-0.751, -2.052e-5, 1.762e-2, 4.326e+2
-0.690, -1.451e-5, 1.567e-2, 4.332e+2
-0.629, -9.870e-6, 1.731e-2, 4.338e+2
-0.568, -6.585e-6, 1.716e-2, 4.344e+2
-0.507, -4.253e-6, 1.745e-2, 4.351e+2
-0.446, -2.718e-6, 1.688e-2, 4.357e+2
-0.385, -1.546e-6, 1.907e-2, 4.363e+2
-0.324, -8.014e-7, 1.815e-2, 4.369e+2
-0.263, -1.178e-7, 1.752e-2, 4.375e+2
-0.202, 3.965e-7, 1.908e-2, 4.381e+2
-0.141, 8.235e-7, 1.757e-2, 4.387e+2
-0.080, 1.178e-6, 1.991e-2, 4.393e+2
-0.019, 1.509e-6, 1.676e-2, 4.399e+2
-0.042, 7.127e-7, 2.110e-2, 4.405e+2
-0.103, 8.397e-8, 1.661e-2, 4.412e+2
-0.164, -4.913e-7, 2.004e-2, 4.418e+2
-0.225, -1.214e-6, 1.611e-2, 4.424e+2
-0.286, -2.009e-6, 1.891e-2, 4.430e+2
-0.347, -3.120e-6, 1.581e-2, 4.436e+2
-0.408, -4.480e-6, 1.911e-2, 4.442e+2
-0.469, -6.456e-6, 1.500e-2, 4.448e+2
-0.530, -9.407e-6, 1.841e-2, 4.454e+2
-0.591, -1.401e-5, 1.605e-2, 4.460e+2
-0.652, -2.093e-5, 1.849e-2, 4.467e+2
-0.713, -3.130e-5, 1.635e-2, 4.473e+2
-0.774, -4.604e-5, 1.808e-2, 4.479e+2
-0.835, -6.488e-5, 1.836e-2, 4.485e+2
-0.896, -8.616e-5, 2.163e-2, 4.491e+2
-0.957, -1.125e-4, 2.439e-2, 4.497e+2
-1.018, -1.427e-4, 2.491e-2, 4.503e+2
-1.079, -1.761e-4, 2.624e-2, 4.509e+2
-1.140, -2.104e-4, 2.554e-2, 4.515e+2
-1.201, -2.429e-4, 2.844e-2, 4.521e+2
-1.262, -2.710e-4, 2.942e-2, 4.528e+2
-1.323, -2.932e-4, 3.199e-2, 4.534e+2
-1.384, -3.084e-4, 3.163e-2, 4.540e+2
-1.445, -3.166e-4, 3.711e-2, 4.546e+2
-1.506, -3.193e-4, 3.504e-2, 4.552e+2
-1.567, -3.233e-4, 4.305e-2, 4.558e+2
-1.628, -3.356e-4, 4.913e-2, 4.564e+2
-1.689, -3.444e-4, 6.588e-2, 4.570e+2
-1.750, -3.479e-4, 8.703e-2, 4.576e+2
-1.811, -3.542e-4, 1.177e-1, 4.583e+2
-1.872, -3.643e-4, 1.472e-1, 4.589e+2
-1.933, -3.786e-4, 1.893e-1, 4.595e+2
-1.994, -4.012e-4, 2.342e-1, 4.601e+2
-1.945, -3.122e-4, 1.408e-1, 4.607e+2
-1.884, -2.631e-4, 9.170e-2, 4.613e+2
-1.823, -2.344e-4, 6.392e-2, 4.619e+2
-1.762, -2.154e-4, 4.655e-2, 4.625e+2
-1.701, -2.009e-4, 3.947e-2, 4.631e+2
-1.640, -1.887e-4, 3.347e-2, 4.638e+2
-1.579, -1.772e-4, 2.798e-2, 4.644e+2
-1.518, -1.659e-4, 2.791e-2, 4.650e+2
-1.457, -1.541e-4, 2.465e-2, 4.656e+2
-1.396, -1.421e-4, 2.456e-2, 4.662e+2
-1.335, -1.296e-4, 2.167e-2, 4.668e+2
-1.274, -1.169e-4, 2.263e-2, 4.674e+2
-1.213, -1.036e-4, 2.265e-2, 4.680e+2
-1.152, -9.024e-5, 2.252e-2, 4.686e+2
-1.091, -7.697e-5, 1.861e-2, 4.692e+2
-1.030, -6.413e-5, 2.219e-2, 4.699e+2
-0.969, -5.211e-5, 1.865e-2, 4.705e+2
-0.908, -4.104e-5, 2.308e-2, 4.711e+2
-0.847, -3.143e-5, 1.700e-2, 4.717e+2
-0.786, -2.336e-5, 1.913e-2, 4.723e+2
-0.725, -1.671e-5, 1.563e-2, 4.729e+2
-0.664, -1.149e-5, 1.878e-2, 4.735e+2
-0.603, -7.722e-6, 1.647e-2, 4.741e+2
-0.542, -5.014e-6, 1.840e-2, 4.747e+2
-0.481, -3.262e-6, 1.507e-2, 4.754e+2
-0.420, -1.938e-6, 1.837e-2, 4.760e+2
-0.359, -1.051e-6, 1.566e-2, 4.766e+2
-0.298, -3.036e-7, 1.828e-2, 4.772e+2
-0.237, 1.812e-7, 1.724e-2, 4.778e+2
-0.176, 7.084e-7, 1.687e-2, 4.784e+2
-0.115, 1.015e-6, 1.737e-2, 4.790e+2
-0.054, 1.410e-6, 1.774e-2, 4.796e+2
-0.007, 1.247e-6, 1.848e-2, 4.802e+2
-0.068, 5.214e-7, 1.724e-2, 4.808e+2
-0.129, -2.493e-8, 1.904e-2, 4.815e+2
-0.190, -6.537e-7, 1.732e-2, 4.821e+2
-0.251, -1.418e-6, 1.929e-2, 4.827e+2
-0.312, -2.259e-6, 1.734e-2, 4.833e+2
-0.373, -3.372e-6, 2.121e-2, 4.839e+2
-0.434, -4.807e-6, 1.666e-2, 4.845e+2
-0.495, -6.984e-6, 1.947e-2, 4.851e+2
-0.556, -1.030e-5, 1.628e-2, 4.857e+2
-0.617, -1.539e-5, 2.053e-2, 4.863e+2
-0.678, -2.312e-5, 1.689e-2, 4.870e+2
-0.739, -3.429e-5, 1.970e-2, 4.876e+2
-0.800, -5.004e-5, 1.690e-2, 4.882e+2
-0.861, -6.861e-5, 2.186e-2, 4.888e+2
-0.922, -9.073e-5, 2.090e-2, 4.894e+2
-0.983, -1.177e-4, 2.463e-2, 4.900e+2
-1.044, -1.483e-4, 2.309e-2, 4.906e+2
-1.105, -1.812e-4, 2.340e-2, 4.912e+2
-1.166, -2.145e-4, 2.429e-2, 4.918e+2
-1.227, -2.452e-4, 2.692e-2, 4.924e+2
-1.288, -2.711e-4, 2.679e-2, 4.931e+2
-1.349, -2.908e-4, 2.920e-2, 4.937e+2
-1.410, -3.036e-4, 3.155e-2, 4.943e+2
-1.471, -3.097e-4, 3.192e-2, 4.949e+2
-1.532, -3.123e-4, 3.905e-2, 4.955e+2
-1.593, -3.198e-4, 4.583e-2, 4.961e+2
-1.654, -3.313e-4, 5.553e-2, 4.967e+2
-1.715, -3.367e-4, 6.863e-2, 4.973e+2
-1.776, -3.409e-4, 9.951e-2, 4.979e+2
-1.837, -3.496e-4, 1.351e-1, 4.986e+2
-1.898, -3.610e-4, 1.697e-1, 4.992e+2
-1.959, -3.779e-4, 2.173e-1, 4.998e+2
-1.980, -3.503e-4, 2.020e-1, 5.004e+2
-1.919, -2.799e-4, 1.089e-1, 5.010e+2
-1.858, -2.426e-4, 7.874e-2, 5.016e+2
-1.797, -2.196e-4, 5.285e-2, 5.022e+2
-1.736, -2.032e-4, 4.349e-2, 5.028e+2
-1.675, -1.901e-4, 3.349e-2, 5.034e+2
-1.614, -1.784e-4, 3.323e-2, 5.041e+2
-1.553, -1.672e-4, 2.676e-2, 5.047e+2
-1.492, -1.558e-4, 2.690e-2, 5.053e+2
-1.431, -1.441e-4, 2.214e-2, 5.059e+2
-1.370, -1.320e-4, 2.371e-2, 5.065e+2
-1.309, -1.197e-4, 2.002e-2, 5.071e+2
-1.248, -1.068e-4, 1.987e-2, 5.077e+2
-1.187, -9.386e-5, 2.128e-2, 5.083e+2
-1.126, -8.080e-5, 1.871e-2, 5.089e+2
-1.065, -6.803e-5, 1.992e-2, 5.095e+2
-1.004, -5.595e-5, 1.826e-2, 5.102e+2
-0.943, -4.470e-5, 1.937e-2, 5.108e+2
-0.882, -3.465e-5, 1.716e-2, 5.114e+2
-0.821, -2.606e-5, 1.960e-2, 5.120e+2
-0.760, -1.900e-5, 1.681e-2, 5.126e+2
-0.699, -1.335e-5, 1.869e-2, 5.132e+2
-0.638, -9.057e-6, 1.692e-2, 5.138e+2
-0.577, -5.913e-6, 1.979e-2, 5.144e+2
-0.516, -3.806e-6, 1.628e-2, 5.150e+2
-0.455, -2.331e-6, 2.012e-2, 5.157e+2
-0.394, -1.346e-6, 1.568e-2, 5.163e+2
-0.333, -5.602e-7, 2.101e-2, 5.169e+2
-0.272, 3.598e-8, 1.691e-2, 5.175e+2
-0.211, 5.085e-7, 1.958e-2, 5.181e+2
-0.150, 8.764e-7, 1.619e-2, 5.187e+2
-0.089, 1.233e-6, 1.968e-2, 5.193e+2
-0.028, 1.473e-6, 1.650e-2, 5.199e+2
-0.033, 9.004e-7, 1.937e-2, 5.205e+2
-0.094, 2.888e-7, 1.556e-2, 5.211e+2
-0.155, -2.015e-7, 1.918e-2, 5.218e+2
-0.216, -9.090e-7, 1.574e-2, 5.224e+2
-0.277, -1.602e-6, 1.880e-2, 5.230e+2
-0.338, -2.503e-6, 1.616e-2, 5.236e+2
-0.399, -3.653e-6, 1.811e-2, 5.242e+2
-0.460, -5.286e-6, 1.565e-2, 5.248e+2
-0.521, -7.681e-6, 1.747e-2, 5.254e+2
-0.582, -1.148e-5, 1.589e-2, 5.260e+2
-0.643, -1.722e-5, 1.758e-2, 5.266e+2
-0.704, -2.583e-5, 1.532e-2, 5.273e+2
-0.765, -3.816e-5, 1.749e-2, 5.279e+2
-0.826, -5.477e-5, 1.727e-2, 5.285e+2
-0.887, -7.369e-5, 1.990e-2, 5.291e+2
-0.948, -9.741e-5, 2.209e-2, 5.297e+2
-1.009, -1.252e-4, 2.297e-2, 5.303e+2
-1.070, -1.567e-4, 2.121e-2, 5.309e+2
-1.131, -1.898e-4, 2.669e-2, 5.315e+2
-1.192, -2.226e-4, 2.468e-2, 5.321e+2
-1.253, -2.520e-4, 2.722e-2, 5.327e+2
-1.314, -2.760e-4, 2.977e-2, 5.334e+2
-1.375, -2.936e-4, 2.924e-2, 5.340e+2
-1.436, -3.041e-4, 3.033e-2, 5.346e+2
-1.497, -3.085e-4, 3.393e-2, 5.352e+2
-1.558, -3.121e-4, 4.355e-2, 5.358e+2
-1.619, -3.220e-4, 4.804e-2, 5.364e+2
-1.680, -3.305e-4, 6.524e-2, 5.370e+2
-1.741, -3.343e-4, 8.455e-2, 5.376e+2
-1.802, -3.405e-4, 1.165e-1, 5.382e+2
-1.863, -3.507e-4, 1.439e-1, 5.389e+2
-1.924, -3.630e-4, 1.940e-1, 5.395e+2
-1.985, -3.815e-4, 2.516e-1, 5.401e+2
-1.954, -3.094e-4, 1.546e-1, 5.407e+2
-1.893, -2.587e-4, 9.803e-2, 5.413e+2
-1.832, -2.296e-4, 6.978e-2, 5.419e+2
-1.771, -2.104e-4, 5.049e-2, 5.425e+2
-1.710, -1.959e-4, 4.076e-2, 5.431e+2
-1.649, -1.836e-4, 3.147e-2, 5.437e+2
-1.588, -1.722e-4, 3.187e-2, 5.443e+2
-1.527, -1.609e-4, 2.421e-2, 5.450e+2
-1.466, -1.494e-4, 2.688e-2, 5.456e+2
-1.405, -1.375e-4, 2.207e-2, 5.462e+2
-1.344, -1.253e-4, 2.541e-2, 5.468e+2
-1.283, -1.127e-4, 1.983e-2, 5.474e+2
-1.222, -9.986e-5, 2.150e-2, 5.480e+2
-1.161, -8.683e-5, 1.741e-2, 5.486e+2
-1.100, -7.397e-5, 2.112e-2, 5.492e+2
-1.039, -6.158e-5, 1.713e-2, 5.498e+2
-0.978, -4.989e-5, 2.145e-2, 5.505e+2
-0.917, -3.924e-5, 1.599e-2, 5.511e+2
-0.856, -2.999e-5, 2.060e-2, 5.517e+2
-0.795, -2.229e-5, 1.540e-2, 5.523e+2
-0.734, -1.589e-5, 1.846e-2, 5.529e+2
-0.673, -1.090e-5, 1.637e-2, 5.535e+2
-0.612, -7.294e-6, 1.866e-2, 5.541e+2
-0.551, -4.725e-6, 1.455e-2, 5.547e+2
-0.490, -2.983e-6, 1.850e-2, 5.553e+2
-0.429, -1.778e-6, 1.494e-2, 5.560e+2
-0.368, -9.053e-7, 1.837e-2, 5.566e+2
-0.307, -1.990e-7, 1.572e-2, 5.572e+2
-0.246, 2.612e-7, 1.729e-2, 5.578e+2
-0.185, 7.404e-7, 1.606e-2, 5.584e+2
-0.124, 1.078e-6, 1.721e-2, 5.590e+2
-0.063, 1.391e-6, 1.722e-2, 5.596e+2
-0.002, 1.580e-6, 1.667e-2, 5.602e+2
-0.059, 6.475e-7, 1.765e-2, 5.608e+2
-0.120, 1.172e-7, 1.661e-2, 5.614e+2
-0.181, -3.984e-7, 1.793e-2, 5.621e+2
-0.242, -1.132e-6, 1.660e-2, 5.627e+2
-0.303, -1.833e-6, 1.973e-2, 5.633e+2
-0.364, -2.888e-6, 1.654e-2, 5.639e+2
-0.425, -4.124e-6, 1.937e-2, 5.645e+2
-0.486, -5.975e-6, 1.633e-2, 5.651e+2
-0.547, -8.736e-6, 1.983e-2, 5.657e+2
-0.608, -1.316e-5, 1.680e-2, 5.663e+2
-0.669, -1.975e-5, 1.981e-2, 5.669e+2
-0.730, -2.950e-5, 1.707e-2, 5.676e+2
-0.791, -4.332e-5, 2.034e-2, 5.682e+2
-0.852, -6.055e-5, 1.841e-2, 5.688e+2
-0.913, -8.079e-5, 2.426e-2, 5.694e+2
-0.974, -1.060e-4, 2.359e-2, 5.700e+2
-1.035, -1.352e-4, 2.507e-2, 5.706e+2
-1.096, -1.675e-4, 2.466e-2, 5.712e+2
-1.157, -2.008e-4, 2.762e-2, 5.718e+2
-1.218, -2.327e-4, 2.609e-2, 5.724e+2
-1.279, -2.604e-4, 2.905e-2, 5.730e+2
-1.340, -2.824e-4, 2.556e-2, 5.737e+2
-1.401, -2.974e-4, 3.099e-2, 5.743e+2
-1.462, -3.054e-4, 3.038e-2, 5.749e+2
-1.523, -3.087e-4, 3.747e-2, 5.755e+2
-1.584, -3.142e-4, 4.336e-2, 5.761e+2
-1.645, -3.246e-4, 5.298e-2, 5.767e+2
-1.706, -3.301e-4, 7.147e-2, 5.773e+2
-1.767, -3.341e-4, 9.686e-2, 5.779e+2
-1.828, -3.424e-4, 1.267e-1, 5.785e+2
-1.889, -3.531e-4, 1.691e-1, 5.792e+2
-1.950, -3.668e-4, 2.228e-1, 5.798e+2
-1.989, -3.573e-4, 2.273e-1, 5.804e+2
-1.928, -2.815e-4, 1.237e-1, 5.810e+2
-1.867, -2.430e-4, 8.034e-2, 5.816e+2
-1.806, -2.214e-4, 5.603e-2, 5.822e+2
-1.745, -2.041e-4, 4.230e-2, 5.828e+2
-1.684, -1.903e-4, 3.667e-2, 5.834e+2
-1.623, -1.785e-4, 2.970e-2, 5.840e+2
-1.562, -1.670e-4, 2.691e-2, 5.846e+2
-1.501, -1.556e-4, 2.260e-2, 5.853e+2
-1.440, -1.437e-4, 2.364e-2, 5.859e+2
-1.379, -1.317e-4, 2.070e-2, 5.865e+2
-1.318, -1.192e-4, 2.223e-2, 5.871e+2
-1.257, -1.065e-4, 1.922e-2, 5.877e+2
-1.196, -9.341e-5, 1.891e-2, 5.883e+2
-1.135, -8.048e-5, 1.835e-2, 5.889e+2
-1.074, -6.773e-5, 1.814e-2, 5.895e+2
-1.013, -5.574e-5, 2.008e-2, 5.901e+2
-0.952, -4.452e-5, 1.955e-2, 5.908e+2
-0.891, -3.452e-5, 1.822e-2, 5.914e+2
-0.830, -2.599e-5, 1.737e-2, 5.920e+2
-0.769, -1.894e-5, 1.726e-2, 5.926e+2
-0.708, -1.329e-5, 1.703e-2, 5.932e+2
-0.647, -9.047e-6, 1.799e-2, 5.938e+2
-0.586, -5.871e-6, 1.585e-2, 5.944e+2
-0.525, -3.767e-6, 1.862e-2, 5.950e+2
-0.464, -2.305e-6, 1.583e-2, 5.956e+2
-0.403, -1.273e-6, 1.919e-2, 5.963e+2
-0.342, -4.931e-7, 1.623e-2, 5.969e+2
-0.281, 5.136e-8, 1.890e-2, 5.975e+2
-0.220, 5.066e-7, 1.545e-2, 5.981e+2
-0.159, 9.471e-7, 1.901e-2, 5.987e+2
-0.098, 1.193e-6, 1.648e-2, 5.993e+2
-0.037, 1.493e-6, 1.943e-2, 5.999e+2
-0.024, 1.076e-6, 1.598e-2, 6.005e+2
-0.085, 4.759e-7, 1.934e-2, 6.011e+2
-0.146, -1.283e-7, 1.660e-2, 6.017e+2
-0.207, -6.371e-7, 1.980e-2, 6.024e+2
-0.268, -1.373e-6, 1.692e-2, 6.030e+2
-0.329, -2.147e-6, 1.898e-2, 6.036e+2
-0.390, -3.292e-6, 1.798e-2, 6.042e+2
-0.451, -4.667e-6, 1.836e-2, 6.048e+2
-0.512, -6.839e-6, 1.734e-2, 6.054e+2
-0.573, -1.005e-5, 1.871e-2, 6.060e+2
-0.634, -1.521e-5, 1.765e-2, 6.066e+2
-0.695, -2.275e-5, 1.905e-2, 6.072e+2
-0.756, -3.389e-5, 1.803e-2, 6.079e+2
-0.817, -4.907e-5, 1.862e-2, 6.085e+2
-0.878, -6.681e-5, 2.173e-2, 6.091e+2
-0.939, -8.885e-5, 2.135e-2, 6.097e+2
-1.000, -1.157e-4, 2.397e-2, 6.103e+2
-1.061, -1.461e-4, 2.655e-2, 6.109e+2
-1.122, -1.791e-4, 2.713e-2, 6.115e+2
-1.183, -2.123e-4, 2.737e-2, 6.121e+2
-1.244, -2.431e-4, 2.898e-2, 6.127e+2
-1.305, -2.691e-4, 2.607e-2, 6.133e+2
-1.366, -2.888e-4, 3.167e-2, 6.140e+2
-1.427, -3.012e-4, 3.260e-2, 6.146e+2
-1.488, -3.070e-4, 3.814e-2, 6.152e+2
-1.549, -3.102e-4, 4.024e-2, 6.158e+2
-1.610, -3.182e-4, 4.833e-2, 6.164e+2
-1.671, -3.265e-4, 6.244e-2, 6.170e+2
-1.732, -3.301e-4, 7.815e-2, 6.176e+2
-1.793, -3.358e-4, 1.152e-1, 6.182e+2
-1.854, -3.457e-4, 1.501e-1, 6.188e+2
-1.915, -3.567e-4, 2.023e-1, 6.195e+2
-1.976, -3.719e-4, 2.582e-1, 6.201e+2
-1.963, -3.149e-4, 1.702e-1, 6.207e+2
-1.902, -2.612e-4, 1.045e-1, 6.213e+2
-1.841, -2.312e-4, 7.080e-2, 6.219e+2
-1.780, -2.114e-4, 5.043e-2, 6.225e+2
-1.719, -1.966e-4, 4.282e-2, 6.231e+2
-1.658, -1.840e-4, 3.450e-2, 6.237e+2
-1.597, -1.726e-4, 3.149e-2, 6.243e+2
-1.536, -1.612e-4, 2.633e-2, 6.249e+2
-1.475, -1.496e-4, 2.584e-2, 6.256e+2
-1.414, -1.377e-4, 2.195e-2, 6.262e+2
-1.353, -1.254e-4, 2.384e-2, 6.268e+2
-1.292, -1.128e-4, 1.916e-2, 6.274e+2
-1.231, -9.995e-5, 2.279e-2, 6.280e+2
-1.170, -8.696e-5, 1.933e-2, 6.286e+2
-1.109, -7.409e-5, 2.096e-2, 6.292e+2
-1.048, -6.172e-5, 1.910e-2, 6.298e+2
-0.987, -5.006e-5, 2.216e-2, 6.304e+2
-0.926, -3.943e-5, 1.748e-2, 6.311e+2
-0.865, -3.015e-5, 2.028e-2, 6.317e+2
-0.804, -2.241e-5, 1.651e-2, 6.323e+2
-0.743, -1.602e-5, 1.996e-2, 6.329e+2
-0.682, -1.107e-5, 1.827e-2, 6.335e+2
-0.621, -7.328e-6, 1.871e-2, 6.341e+2
-0.560, -4.792e-6, 1.689e-2, 6.347e+2
-0.499, -2.965e-6, 1.878e-2, 6.353e+2
-0.438, -1.806e-6, 1.755e-2, 6.359e+2
-0.377, -8.327e-7, 1.926e-2, 6.365e+2
-0.316, -2.803e-7, 1.727e-2, 6.372e+2
-0.255, 3.128e-7, 1.840e-2, 6.378e+2
-0.194, 6.660e-7, 1.730e-2, 6.384e+2
-0.133, 1.120e-6, 1.800e-2, 6.390e+2
-0.072, 1.289e-6, 1.787e-2, 6.396e+2
-0.011, 1.640e-6, 1.755e-2, 6.402e+2
-0.050, 7.423e-7, 1.811e-2, 6.408e+2
-0.111, 2.384e-7, 1.718e-2, 6.414e+2
-0.172, -2.913e-7, 1.848e-2, 6.420e+2
-0.233, -9.133e-7, 1.738e-2, 6.427e+2
-0.294, -1.673e-6, 2.070e-2, 6.433e+2
-0.355, -2.514e-6, 1.713e-2, 6.439e+2
-0.416, -3.679e-6, 1.900e-2, 6.445e+2
-0.477, -5.321e-6, 1.692e-2, 6.451e+2
-0.538, -7.823e-6, 1.868e-2, 6.457e+2
-0.599, -1.166e-5, 1.657e-2, 6.463e+2
-0.660, -1.759e-5, 1.962e-2, 6.469e+2
-0.721, -2.627e-5, 1.599e-2, 6.475e+2
-0.782, -3.890e-5, 1.987e-2, 6.482e+2
-0.843, -5.506e-5, 1.773e-2, 6.488e+2
-0.904, -7.394e-5, 2.222e-2, 6.494e+2
-0.965, -9.785e-5, 1.988e-2, 6.500e+2
-1.026, -1.260e-4, 2.346e-2, 6.506e+2
-1.087, -1.577e-4, 2.230e-2, 6.512e+2
-1.148, -1.910e-4, 2.806e-2, 6.518e+2
-1.209, -2.239e-4, 2.433e-2, 6.524e+2
-1.270, -2.532e-4, 2.936e-2, 6.530e+2
-1.331, -2.771e-4, 2.628e-2, 6.536e+2
-1.392, -2.942e-4, 3.315e-2, 6.543e+2
-1.453, -3.039e-4, 2.891e-2, 6.549e+2
-1.514, -3.080e-4, 3.968e-2, 6.555e+2
-1.575, -3.123e-4, 4.101e-2, 6.561e+2
-1.636, -3.212e-4, 5.211e-2, 6.567e+2
-1.697, -3.268e-4, 6.419e-2, 6.573e+2
-1.758, -3.303e-4, 9.584e-2, 6.579e+2
-1.819, -3.383e-4, 1.311e-1, 6.585e+2
-1.880, -3.487e-4, 1.691e-1, 6.591e+2
-1.941, -3.601e-4, 2.201e-1, 6.598e+2
-1.998, -3.702e-4, 2.665e-1, 6.604e+2
-1.937, -2.857e-4, 1.435e-1, 6.610e+2
-1.876, -2.454e-4, 8.491e-2, 6.616e+2
-1.815, -2.212e-4, 6.129e-2, 6.622e+2
-1.754, -2.042e-4, 4.669e-2, 6.628e+2
-1.693, -1.905e-4, 3.842e-2, 6.634e+2
-1.632, -1.786e-4, 3.236e-2, 6.640e+2
-1.571, -1.672e-4, 2.669e-2, 6.646e+2
-1.510, -1.556e-4, 2.729e-2, 6.652e+2
-1.449, -1.438e-4, 2.249e-2, 6.659e+2
-1.388, -1.317e-4, 2.363e-2, 6.665e+2
-1.327, -1.194e-4, 1.991e-2, 6.671e+2
-1.266, -1.066e-4, 2.165e-2, 6.677e+2
-1.205, -9.365e-5, 1.961e-2, 6.683e+2
-1.144, -8.074e-5, 2.072e-2, 6.689e+2
-1.083, -6.802e-5, 1.918e-2, 6.695e+2
-1.022, -5.597e-5, 2.041e-2, 6.701e+2
-0.961, -4.480e-5, 1.760e-2, 6.707e+2
-0.900, -3.478e-5, 1.985e-2, 6.714e+2
-0.839, -2.619e-5, 1.739e-2, 6.720e+2
-0.778, -1.919e-5, 1.853e-2, 6.726e+2
-0.717, -1.345e-5, 1.818e-2, 6.732e+2
-0.656, -9.221e-6, 1.757e-2, 6.738e+2
-0.595, -5.927e-6, 1.872e-2, 6.744e+2
-0.534, -3.856e-6, 1.694e-2, 6.750e+2
-0.473, -2.271e-6, 1.885e-2, 6.756e+2
-0.412, -1.359e-6, 1.701e-2, 6.762e+2
-0.351, -5.374e-7, 1.975e-2, 6.768e+2
-0.290, 5.832e-9, 1.676e-2, 6.775e+2
-0.229, 5.399e-7, 1.948e-2, 6.781e+2
-0.168, 8.555e-7, 1.697e-2, 6.787e+2
-0.107, 1.193e-6, 1.970e-2, 6.793e+2
-0.046, 1.442e-6, 1.616e-2, 6.799e+2
-0.015, 1.214e-6, 2.910e-2, 6.805e+2
-0.076, 5.466e-7, 1.658e-2, 6.811e+2
-0.137, 6.059e-8, 2.017e-2, 6.817e+2
-0.198, -5.183e-7, 1.630e-2, 6.823e+2
-0.259, -1.147e-6, 1.955e-2, 6.830e+2
-0.320, -1.924e-6, 1.645e-2, 6.836e+2
-0.381, -2.919e-6, 1.872e-2, 6.842e+2
-0.442, -4.225e-6, 1.665e-2, 6.848e+2
-0.503, -6.127e-6, 1.880e-2, 6.854e+2
-0.564, -8.987e-6, 1.672e-2, 6.860e+2
-0.625, -1.358e-5, 1.830e-2, 6.866e+2
-0.686, -2.036e-5, 1.763e-2, 6.872e+2
-0.747, -3.045e-5, 1.788e-2, 6.878e+2
-0.808, -4.443e-5, 1.923e-2, 6.885e+2
-0.869, -6.129e-5, 1.953e-2, 6.891e+2
-0.930, -8.197e-5, 2.142e-2, 6.897e+2
-0.991, -1.076e-4, 2.173e-2, 6.903e+2
-1.052, -1.372e-4, 2.417e-2, 6.909e+2
-1.113, -1.697e-4, 2.388e-2, 6.915e+2
-1.174, -2.033e-4, 2.676e-2, 6.921e+2
-1.235, -2.352e-4, 2.662e-2, 6.927e+2
-1.296, -2.627e-4, 2.835e-2, 6.933e+2
-1.357, -2.843e-4, 2.614e-2, 6.939e+2
-1.418, -2.986e-4, 3.100e-2, 6.946e+2
-1.479, -3.057e-4, 2.914e-2, 6.952e+2
-1.540, -3.089e-4, 3.808e-2, 6.958e+2
-1.601, -3.151e-4, 4.433e-2, 6.964e+2
-1.662, -3.230e-4, 6.054e-2, 6.970e+2
-1.723, -3.265e-4, 7.474e-2, 6.976e+2
-1.784, -3.314e-4, 1.144e-1, 6.982e+2
-1.845, -3.416e-4, 1.492e-1, 6.988e+2
-1.906, -3.517e-4, 1.926e-1, 6.994e+2
-1.967, -3.640e-4, 2.410e-1, 7.001e+2
-1.972, -3.216e-4, 1.887e-1, 7.007e+2
-1.911, -2.643e-4, 1.140e-1, 7.013e+2
-1.850, -2.331e-4, 7.079e-2, 7.019e+2
-1.789, -2.129e-4, 5.094e-2, 7.025e+2
-1.728, -1.978e-4, 3.824e-2, 7.031e+2
-1.667, -1.850e-4, 3.492e-2, 7.037e+2
-1.606, -1.734e-4, 2.803e-2, 7.043e+2
-1.545, -1.618e-4, 2.639e-2, 7.049e+2
-1.484, -1.502e-4, 2.163e-2, 7.055e+2
-1.423, -1.382e-4, 2.446e-2, 7.062e+2
-1.362, -1.260e-4, 2.031e-2, 7.068e+2
-1.301, -1.134e-4, 2.007e-2, 7.074e+2
-1.240, -1.005e-4, 1.940e-2, 7.080e+2
-1.179, -8.746e-5, 1.939e-2, 7.086e+2
-1.118, -7.467e-5, 1.794e-2, 7.092e+2
-1.057, -6.218e-5, 1.992e-2, 7.098e+2
-0.996, -5.057e-5, 1.699e-2, 7.104e+2
-0.935, -3.983e-5, 1.899e-2, 7.110e+2
-0.874, -3.053e-5, 1.584e-2, 7.117e+2
-0.813, -2.273e-5, 1.892e-2, 7.123e+2
-0.752, -1.632e-5, 1.654e-2, 7.129e+2
-0.691, -1.122e-5, 1.802e-2, 7.135e+2
-0.630, -7.488e-6, 1.499e-2, 7.141e+2
-0.569, -4.824e-6, 1.794e-2, 7.147e+2
-0.508, -3.036e-6, 1.851e-2, 7.153e+2
-0.447, -1.754e-6, 1.864e-2, 7.159e+2
-0.386, -9.336e-7, 1.495e-2, 7.165e+2
-0.325, -2.723e-7, 1.837e-2, 7.171e+2
-0.264, 2.648e-7, 1.448e-2, 7.178e+2
-0.203, 6.635e-7, 1.883e-2, 7.184e+2
-0.142, 1.033e-6, 1.597e-2, 7.190e+2
-0.081, 1.321e-6, 1.917e-2, 7.196e+2
-0.020, 1.598e-6, 1.475e-2, 7.202e+2
-0.041, 9.330e-7, 1.865e-2, 7.208e+2
-0.102, 3.584e-7, 1.586e-2, 7.214e+2
-0.163, -1.621e-7, 1.944e-2, 7.220e+2
-0.224, -7.244e-7, 1.539e-2, 7.226e+2
-0.285, -1.429e-6, 1.923e-2, 7.233e+2
-0.346, -2.257e-6, 1.558e-2, 7.239e+2
-0.407, -3.358e-6, 1.923e-2, 7.245e+2
-0.468, -4.807e-6, 1.690e-2, 7.251e+2
-0.529, -6.992e-6, 1.806e-2, 7.257e+2
-0.590, -1.046e-5, 1.616e-2, 7.263e+2
-0.651, -1.577e-5, 1.869e-2, 7.269e+2
-0.712, -2.365e-5, 1.695e-2, 7.275e+2
-0.773, -3.511e-5, 1.871e-2, 7.281e+2
-0.834, -5.032e-5, 1.782e-2, 7.287e+2
-0.895, -6.806e-5, 2.249e-2, 7.294e+2
-0.956, -9.067e-5, 2.123e-2, 7.300e+2
-1.017, -1.179e-4, 2.257e-2, 7.306e+2
-1.078, -1.488e-4, 2.231e-2, 7.312e+2
-1.139, -1.820e-4, 2.624e-2, 7.318e+2
-1.200, -2.155e-4, 2.428e-2, 7.324e+2
-1.261, -2.461e-4, 2.510e-2, 7.330e+2
-1.322, -2.717e-4, 2.912e-2, 7.336e+2
-1.383, -2.911e-4, 3.026e-2, 7.342e+2
-1.444, -3.025e-4, 2.987e-2, 7.349e+2
-1.505, -3.075e-4, 3.303e-2, 7.355e+2
-1.566, -3.109e-4, 4.117e-2, 7.361e+2
-1.627, -3.185e-4, 5.024e-2, 7.367e+2
-1.688, -3.239e-4, 6.569e-2, 7.373e+2
-1.749, -3.270e-4, 9.285e-2, 7.379e+2
-1.810, -3.342e-4, 1.273e-1, 7.385e+2
-1.871, -3.449e-4, 1.656e-1, 7.391e+2
-1.932, -3.545e-4, 2.289e-1, 7.397e+2
-1.993, -3.682e-4, 2.759e-1, 7.404e+2
-1.946, -2.903e-4, 1.574e-1, 7.410e+2
-1.885, -2.481e-4, 8.944e-2, 7.416e+2
-1.824, -2.230e-4, 6.953e-2, 7.422e+2
-1.763, -2.056e-4, 4.726e-2, 7.428e+2
-1.702, -1.917e-4, 3.610e-2, 7.434e+2
-1.641, -1.796e-4, 3.315e-2, 7.440e+2
-1.580, -1.680e-4, 2.970e-2, 7.446e+2
-1.519, -1.564e-4, 2.345e-2, 7.452e+2
-1.458, -1.446e-4, 2.646e-2, 7.458e+2
-1.397, -1.325e-4, 2.270e-2, 7.465e+2
-1.336, -1.201e-4, 2.338e-2, 7.471e+2
-1.275, -1.073e-4, 2.028e-2, 7.477e+2
-1.214, -9.429e-5, 2.176e-2, 7.483e+2
-1.153, -8.134e-5, 1.803e-2, 7.489e+2
-1.092, -6.864e-5, 2.120e-2, 7.495e+2
-1.031, -5.652e-5, 1.702e-2, 7.501e+2
-0.970, -4.529e-5, 2.049e-2, 7.507e+2
-0.909, -3.520e-5, 1.746e-2, 7.513e+2
-0.848, -2.663e-5, 2.025e-2, 7.520e+2
-0.787, -1.945e-5, 1.704e-2, 7.526e+2
-0.726, -1.368e-5, 1.783e-2, 7.532e+2
-0.665, -9.343e-6, 1.683e-2, 7.538e+2
-0.604, -6.110e-6, 1.733e-2, 7.544e+2
-0.543, -3.878e-6, 1.678e-2, 7.550e+2
-0.482, -2.394e-6, 1.816e-2, 7.556e+2
-0.421, -1.313e-6, 1.689e-2, 7.562e+2
-0.360, -5.706e-7, 1.693e-2, 7.568e+2
-0.299, 5.444e-8, 1.670e-2, 7.574e+2
-0.238, 4.470e-7, 2.316e-2, 7.581e+2
-0.177, 8.776e-7, 1.706e-2, 7.587e+2
-0.116, 1.135e-6, 1.653e-2, 7.593e+2
-0.055, 1.483e-6, 1.774e-2, 7.599e+2
-0.006, 1.362e-6, 1.625e-2, 7.605e+2
-0.067, 6.930e-7, 1.746e-2, 7.611e+2
-0.128, 1.264e-7, 1.593e-2, 7.617e+2
-0.189, -3.116e-7, 1.728e-2, 7.623e+2
-0.250, -9.976e-7, 1.578e-2, 7.629e+2
-0.311, -1.692e-6, 1.721e-2, 7.636e+2
-0.372, -2.649e-6, 1.609e-2, 7.642e+2
-0.433, -3.812e-6, 1.821e-2, 7.648e+2
-0.494, -5.571e-6, 1.580e-2, 7.654e+2
-0.555, -8.095e-6, 1.817e-2, 7.660e+2
-0.616, -1.221e-5, 1.576e-2, 7.666e+2
-0.677, -1.831e-5, 1.820e-2, 7.672e+2
-0.738, -2.748e-5, 1.644e-2, 7.678e+2
-0.799, -4.039e-5, 1.926e-2, 7.684e+2
-0.860, -5.639e-5, 1.823e-2, 7.690e+2
-0.921, -7.575e-5, 2.089e-2, 7.697e+2
-0.982, -1.003e-4, 2.226e-2, 7.703e+2
-1.043, -1.289e-4, 2.308e-2, 7.709e+2
-1.104, -1.611e-4, 2.075e-2, 7.715e+2
-1.165, -1.947e-4, 2.649e-2, 7.721e+2
-1.226, -2.276e-4, 2.452e-2, 7.727e+2
-1.287, -2.566e-4, 2.743e-2, 7.733e+2
-1.348, -2.801e-4, 2.643e-2, 7.739e+2
-1.409, -2.963e-4, 3.062e-2, 7.745e+2
-1.470, -3.051e-4, 3.092e-2, 7.752e+2
-1.531, -3.086e-4, 3.777e-2, 7.758e+2
-1.592, -3.135e-4, 4.338e-2, 7.764e+2
-1.653, -3.206e-4, 5.770e-2, 7.770e+2
-1.714, -3.241e-4, 7.950e-2, 7.776e+2
-1.775, -3.281e-4, 1.118e-1, 7.782e+2
-1.836, -3.378e-4, 1.433e-1, 7.788e+2
-1.897, -3.478e-4, 1.948e-1, 7.794e+2
-1.958, -3.579e-4, 2.578e-1, 7.800e+2
-1.981, -3.301e-4, 2.250e-1, 7.807e+2
-1.920, -2.679e-4, 1.193e-1, 7.813e+2
-1.859, -2.354e-4, 8.204e-2, 7.819e+2
-1.798, -2.147e-4, 5.741e-2, 7.825e+2
-1.737, -1.991e-4, 4.395e-2, 7.831e+2
-1.676, -1.861e-4, 3.547e-2, 7.837e+2
-1.615, -1.743e-4, 2.956e-2, 7.843e+2
-1.554, -1.627e-4, 2.641e-2, 7.849e+2
-1.493, -1.509e-4, 2.321e-2, 7.855e+2
-1.432, -1.390e-4, 2.334e-2, 7.861e+2
-1.371, -1.267e-4, 2.073e-2, 7.868e+2
-1.310, -1.141e-4, 2.109e-2, 7.874e+2
-1.249, -1.012e-4, 1.764e-2, 7.880e+2
-1.188, -8.815e-5, 2.016e-2, 7.886e+2
-1.127, -7.532e-5, 1.690e-2, 7.892e+2
-1.066, -6.289e-5, 1.894e-2, 7.898e+2
-1.005, -5.117e-5, 1.793e-2, 7.904e+2
-0.944, -4.039e-5, 1.867e-2, 7.910e+2
-0.883, -3.100e-5, 1.584e-2, 7.916e+2
-0.822, -2.316e-5, 1.863e-2, 7.923e+2
-0.761, -1.664e-5, 1.481e-2, 7.929e+2
-0.700, -1.149e-5, 1.838e-2, 7.935e+2
-0.639, -7.693e-6, 1.442e-2, 7.941e+2
-0.578, -4.941e-6, 1.827e-2, 7.947e+2
-0.517, -3.113e-6, 1.526e-2, 7.953e+2
-0.456, -1.847e-6, 1.832e-2, 7.959e+2
-0.395, -9.539e-7, 1.502e-2, 7.965e+2
-0.334, -2.772e-7, 1.952e-2, 7.971e+2
-0.273, 2.833e-7, 1.563e-2, 7.977e+2
-0.212, 6.758e-7, 1.930e-2, 7.984e+2
-0.151, 1.003e-6, 1.529e-2, 7.990e+2
-0.090, 1.295e-6, 1.939e-2, 7.996e+2
-0.029, 1.551e-6, 1.535e-2, 8.002e+2
-0.002, 1.679e-6, 1.912e-2, 8.005e+2